thisN,thisTrialN,thisRepN,mouse.x,mouse.y,mouse.leftButton,mouse.midButton,mouse.rightButton,mouse.time,mouse.clicked_name,trials.thisRepN,trials.thisTrialN,trials.thisN,trials.thisIndex,thisRow.t,notes,num_distr,trial.started,fixation.started,target.started,mouse.started,fixation.stopped,trial.stopped,trials.mouse.x,trials.mouse.y,trials.mouse.leftButton,trials.mouse.midButton,trials.mouse.rightButton,trials.mouse.time,trials.mouse.clicked_name,participant,session,date,expName,psychopyVersion,frameRate,expStart,
0,0,0,[-0.34765625],[0.041666666666666664],[1],[0],[0],[2.3379072999814525],['target'],0,0,0,0,0.10208930005319417,,10,0.07448010001098737,0.10208930005319417,0.10208930005319417,0.07409330003429204,1.113123400020413,2.413016200007405,[-0.34765625],[0.041666666666666664],[1],[0],[0],[2.3379072999814525],['target'],033335,001,2024-10-10_16h28.07.971,script,2024.2.1post4,60.08795675630589,2024-10-10 16h28.22.150023 +0530,
1,0,1,[-0.3111979166666667],[-0.2825520833333333],[1],[0],[0],[0.9410179000115022],['target'],1,0,1,0,2.4564903000136837,,5,2.4413210000493564,2.4564903000136837,2.4564903000136837,0.028006100037600845,,3.3830106000532396,[-0.3111979166666667],[-0.2825520833333333],[1],[0],[0],[0.9410179000115022],['target'],033335,001,2024-10-10_16h28.07.971,script,2024.2.1post4,60.08795675630589,2024-10-10 16h28.22.150023 +0530,
2,0,2,[0.2838541666666667],[0.3984375],[1],[0],[0],[1.6334857000038028],['target'],2,0,2,0,3.477288300055079,,10,3.4481079000397585,3.477288300055079,3.477288300055079,0.06483960000332445,4.479667300009169,5.082279800029937,[0.2838541666666667],[0.3984375],[1],[0],[0],[1.6334857000038028],['target'],033335,001,2024-10-10_16h28.07.971,script,2024.2.1post4,60.08795675630589,2024-10-10 16h28.22.150023 +0530,
3,0,3,[-0.12369791666666667],[-0.12369791666666667],[1],[0],[0],[1.8828954999917187],['target'],3,0,3,0,5.1726815000292845,,10,5.148086200002581,5.1726815000292845,5.1726815000292845,0.06552659999579191,6.179683600028511,7.031665400019847,[-0.12369791666666667],[-0.12369791666666667],[1],[0],[0],[1.8828954999917187],['target'],033335,001,2024-10-10_16h28.07.971,script,2024.2.1post4,60.08795675630589,2024-10-10 16h28.22.150023 +0530,
4,0,4,[-0.19401041666666666],[0.3489583333333333],[1],[0],[0],[1.118610900011845],['target'],4,0,4,0,7.117351300024893,,10,7.095674000040162,7.117351300024893,7.117351300024893,0.0637163000064902,8.129779400012922,8.214929100009613,[-0.19401041666666666],[0.3489583333333333],[1],[0],[0],[1.118610900011845],['target'],033335,001,2024-10-10_16h28.07.971,script,2024.2.1post4,60.08795675630589,2024-10-10 16h28.22.150023 +0530,
5,0,5,[0.45703125],[0.14322916666666666],[1],[0],[0],[1.0508062999579124],['target'],5,0,5,0,8.303399900032673,,10,8.280865100037772,8.303399900032673,8.303399900032673,0.06565589999081567,9.31260410003597,9.332344700000249,[0.45703125],[0.14322916666666666],[1],[0],[0],[1.0508062999579124],['target'],033335,001,2024-10-10_16h28.07.971,script,2024.2.1post4,60.08795675630589,2024-10-10 16h28.22.150023 +0530,
6,0,6,[0.3658854166666667],[0.033854166666666664],[1],[0],[0],[2.0151220000116155],['target'],6,0,6,0,9.423679700004868,,10,9.399861400015652,9.423679700004868,9.423679700004868,0.06725530000403523,10.429533100046683,11.415674300049432,[0.3658854166666667],[0.033854166666666664],[1],[0],[0],[2.0151220000116155],['target'],033335,001,2024-10-10_16h28.07.971,script,2024.2.1post4,60.08795675630589,2024-10-10 16h28.22.150023 +0530,
7,0,7,[0.1328125],[0.13671875],[1],[0],[0],[1.310853200033307],['target'],7,0,7,0,11.492737400054466,,10,11.470755200018175,11.492737400054466,11.492737400054466,0.05480789998546243,12.496360000048298,12.782281100051478,[0.1328125],[0.13671875],[1],[0],[0],[1.310853200033307],['target'],033335,001,2024-10-10_16h28.07.971,script,2024.2.1post4,60.08795675630589,2024-10-10 16h28.22.150023 +0530,
8,0,8,[-0.010416666666666666],[-0.265625],[1],[0],[0],[1.3488883000100031],['target'],8,0,8,0,12.87222020002082,,10,12.8493429000373,12.87222020002082,12.87222020002082,0.0667826000135392,13.879093400028069,14.198857000039425,[-0.010416666666666666],[-0.265625],[1],[0],[0],[1.3488883000100031],['target'],033335,001,2024-10-10_16h28.07.971,script,2024.2.1post4,60.08795675630589,2024-10-10 16h28.22.150023 +0530,
9,0,9,[0.045572916666666664],[-0.078125],[1],[0],[0],[1.1148904000292532],['target'],9,0,9,0,14.271530500031076,,10,14.249028899997938,14.271530500031076,14.271530500031076,0.04992530000163242,15.279458500037435,15.364600800035987,[0.045572916666666664],[-0.078125],[1],[0],[0],[1.1148904000292532],['target'],033335,001,2024-10-10_16h28.07.971,script,2024.2.1post4,60.08795675630589,2024-10-10 16h28.22.150023 +0530,
10,0,10,[0.140625],[-0.4466145833333333],[1],[0],[0],[1.3914940999820828],['target'],10,0,10,0,15.420862700033467,,5,15.40645550005138,15.420862700033467,15.420862700033467,0.04159859998617321,16.429098200052977,16.798633600003086,[0.140625],[-0.4466145833333333],[1],[0],[0],[1.3914940999820828],['target'],033335,001,2024-10-10_16h28.07.971,script,2024.2.1post4,60.08795675630589,2024-10-10 16h28.22.150023 +0530,
11,0,11,[-0.5091145833333334],[-0.2799479166666667],[1],[0],[0],[1.7069647000171244],[None],11,0,11,0,16.838726400048472,,5,16.824344700027723,16.838726400048472,16.838726400048472,0.025473899964708835,17.845618600025773,18.531922499998473,[-0.5091145833333334],[-0.2799479166666667],[1],[0],[0],[1.7069647000171244],[None],033335,001,2024-10-10_16h28.07.971,script,2024.2.1post4,60.08795675630589,2024-10-10 16h28.22.150023 +0530,
12,0,12,[0.3815104166666667],[0.006510416666666667],[1],[0],[0],[1.4869225000147708],[None],12,0,12,0,18.574289900017902,,5,18.559764600009657,18.574289900017902,18.574289900017902,0.02764990000287071,19.579362700053025,20.0473102000542,[0.3815104166666667],[0.006510416666666667],[1],[0],[0],[1.4869225000147708],[None],033335,001,2024-10-10_16h28.07.971,script,2024.2.1post4,60.08795675630589,2024-10-10 16h28.22.150023 +0530,
13,0,13,[-0.20963541666666666],[-0.10026041666666667],[1],[0],[0],[2.2516025000368245],['target'],13,0,13,0,20.13505520002218,,10,20.11285360000329,20.13505520002218,20.13505520002218,0.06535599997732788,21.145481900020968,22.365069699997548,[-0.20963541666666666],[-0.10026041666666667],[1],[0],[0],[2.2516025000368245],['target'],033335,001,2024-10-10_16h28.07.971,script,2024.2.1post4,60.08795675630589,2024-10-10 16h28.22.150023 +0530,
14,0,14,[0.4895833333333333],[-0.4205729166666667],[1],[0],[0],[1.1064597999793477],['target'],14,0,14,0,22.422233600053005,,5,22.407477400032803,22.422233600053005,22.422233600053005,0.042128800007048994,23.429017700022087,23.514640400011558,[0.4895833333333333],[-0.4205729166666667],[1],[0],[0],[1.1064597999793477],['target'],033335,001,2024-10-10_16h28.07.971,script,2024.2.1post4,60.08795675630589,2024-10-10 16h28.22.150023 +0530,
15,0,15,[-0.234375],[0.18489583333333334],[1],[0],[0],[1.2242280999780633],[None],15,0,15,0,23.61503200000152,,10,23.590147500042804,23.61503200000152,23.61503200000152,0.07528709998587146,24.62867400003597,24.81503990001511,[-0.234375],[0.18489583333333334],[1],[0],[0],[1.2242280999780633],[None],033335,001,2024-10-10_16h28.07.971,script,2024.2.1post4,60.08795675630589,2024-10-10 16h28.22.150023 +0530,
16,0,16,[0.07161458333333333],[0.4674479166666667],[1],[0],[0],[0.9259101999923587],['target'],16,0,16,0,24.869070900022052,,5,24.854332100017928,24.869070900022052,24.869070900022052,0.03902399999788031,,25.780871400027536,[0.07161458333333333],[0.4674479166666667],[1],[0],[0],[0.9259101999923587],['target'],033335,001,2024-10-10_16h28.07.971,script,2024.2.1post4,60.08795675630589,2024-10-10 16h28.22.150023 +0530,
17,0,17,[-0.359375],[0.4518229166666667],[1],[0],[0],[1.0477058999822475],['target'],17,0,17,0,25.8747581000207,,10,25.849977800040506,25.8747581000207,25.8747581000207,0.06894999998621643,26.879305900016334,26.898325800022576,[-0.359375],[0.4518229166666667],[1],[0],[0],[1.0477058999822475],['target'],033335,001,2024-10-10_16h28.07.971,script,2024.2.1post4,60.08795675630589,2024-10-10 16h28.22.150023 +0530,
18,0,18,[0.29296875],[0.0078125],[1],[0],[0],[2.4255296000046656],['target'],18,0,18,0,26.954501100000925,,5,26.939011200040113,26.954501100000925,26.954501100000925,0.04033849999541417,27.962148700025864,29.36520240001846,[0.29296875],[0.0078125],[1],[0],[0],[2.4255296000046656],['target'],033335,001,2024-10-10_16h28.07.971,script,2024.2.1post4,60.08795675630589,2024-10-10 16h28.22.150023 +0530,
19,0,19,[0.3984375],[0.21744791666666666],[1],[0],[0],[1.4882267999928445],['target'],19,0,19,0,29.42488720000256,,5,29.409451400046237,29.42488720000256,29.42488720000256,0.044050399970728904,30.428519800014328,30.898324500012677,[0.3984375],[0.21744791666666666],[1],[0],[0],[1.4882267999928445],['target'],033335,001,2024-10-10_16h28.07.971,script,2024.2.1post4,60.08795675630589,2024-10-10 16h28.22.150023 +0530,
20,0,20,[0.23958333333333334],[0.42578125],[1],[0],[0],[2.5922265000408515],['target'],20,0,20,0,30.952503000036813,,5,30.93716300005326,30.952503000036813,30.952503000036813,0.038607000024057925,31.961787100008223,33.53000970004359,[0.23958333333333334],[0.42578125],[1],[0],[0],[2.5922265000408515],['target'],033335,001,2024-10-10_16h28.07.971,script,2024.2.1post4,60.08795675630589,2024-10-10 16h28.22.150023 +0530,
21,0,21,[-0.2981770833333333],[-0.1875],[1],[0],[0],[1.500166799989529],['target'],21,0,21,0,33.578928700007964,,5,33.56280940002762,33.578928700007964,33.578928700007964,0.0325656000059098,34.57841280003777,35.06356300000334,[-0.2981770833333333],[-0.1875],[1],[0],[0],[1.500166799989529],['target'],033335,001,2024-10-10_16h28.07.971,script,2024.2.1post4,60.08795675630589,2024-10-10 16h28.22.150023 +0530,
22,0,22,[-0.41015625],[-0.4609375],[1],[0],[0],[2.177621699986048],['target'],22,0,22,0,35.12040940002771,,5,35.10323590005282,35.12040940002771,35.12040940002771,0.03945769998244941,36.12813880003523,37.28146950004157,[-0.41015625],[-0.4609375],[1],[0],[0],[2.177621699986048],['target'],033335,001,2024-10-10_16h28.07.971,script,2024.2.1post4,60.08795675630589,2024-10-10 16h28.22.150023 +0530,
23,0,23,[-0.24869791666666666],[0.3125],[1],[0],[0],[1.8712478000088595],['target'],23,0,23,0,37.34182790003251,,5,37.32565260003321,37.34182790003251,37.34182790003251,0.043927300022915006,38.34441440005321,39.19751950004138,[-0.24869791666666666],[0.3125],[1],[0],[0],[1.8712478000088595],['target'],033335,001,2024-10-10_16h28.07.971,script,2024.2.1post4,60.08795675630589,2024-10-10 16h28.22.150023 +0530,
24,0,24,[-0.2565104166666667],[-0.24869791666666666],[1],[0],[0],[1.3969893000321463],['target'],24,0,24,0,39.271710100001656,,10,39.24917640001513,39.271710100001656,39.271710100001656,0.05145919998176396,40.27793760003988,40.6467765000416,[-0.2565104166666667],[-0.24869791666666666],[1],[0],[0],[1.3969893000321463],['target'],033335,001,2024-10-10_16h28.07.971,script,2024.2.1post4,60.08795675630589,2024-10-10 16h28.22.150023 +0530,
25,0,25,[-0.4348958333333333],[0.4244791666666667],[1],[0],[0],[1.297525899950415],[None],25,0,25,0,40.697387300024275,,5,40.682410900015384,40.697387300024275,40.697387300024275,0.03532129997620359,41.71112180000637,41.98059980000835,[-0.4348958333333333],[0.4244791666666667],[1],[0],[0],[1.297525899950415],[None],033335,001,2024-10-10_16h28.07.971,script,2024.2.1post4,60.08795675630589,2024-10-10 16h28.22.150023 +0530,
26,0,26,[-0.4661458333333333],[0.47265625],[1],[0],[0],[0.8926551000331528],['target'],26,0,26,0,42.03584780002711,,5,42.02033350005513,42.03584780002711,42.03584780002711,0.03952900000149384,,42.91368800000055,[-0.4661458333333333],[0.47265625],[1],[0],[0],[0.8926551000331528],['target'],033335,001,2024-10-10_16h28.07.971,script,2024.2.1post4,60.08795675630589,2024-10-10 16h28.22.150023 +0530,
27,0,27,[-0.4309895833333333],[0.4244791666666667],[1],[0],[0],[0.9328972999937832],['target'],27,0,27,0,42.961894000007305,,5,42.947475300054066,42.961894000007305,42.961894000007305,0.033550199994351715,,43.88105090003228,[-0.4309895833333333],[0.4244791666666667],[1],[0],[0],[0.9328972999937832],['target'],033335,001,2024-10-10_16h28.07.971,script,2024.2.1post4,60.08795675630589,2024-10-10 16h28.22.150023 +0530,
28,0,28,[-0.06510416666666667],[-0.17057291666666666],[1],[0],[0],[1.5641972000012174],['target'],28,0,28,0,43.97333420003997,,10,43.94958440004848,43.97333420003997,43.97333420003997,0.06831389997387305,44.97781560005387,45.514408600050956,[-0.06510416666666667],[-0.17057291666666666],[1],[0],[0],[1.5641972000012174],['target'],033335,001,2024-10-10_16h28.07.971,script,2024.2.1post4,60.08795675630589,2024-10-10 16h28.22.150023 +0530,
29,0,29,[-0.421875],[0.10546875],[1],[0],[0],[0.96182540000882],['target'],29,0,29,0,45.61068870004965,,10,45.58481120003853,45.61068870004965,45.61068870004965,0.0700937999645248,,46.54729509999743,[-0.421875],[0.10546875],[1],[0],[0],[0.96182540000882],['target'],033335,001,2024-10-10_16h28.07.971,script,2024.2.1post4,60.08795675630589,2024-10-10 16h28.22.150023 +0530,
30,0,30,[0.22005208333333334],[-0.13151041666666666],[1],[0],[0],[1.2375309999915771],['target'],30,0,30,0,46.603611500002444,,5,46.57515099999728,46.603611500002444,46.603611500002444,0.027606400020886213,47.61134610004956,47.813282100018114,[0.22005208333333334],[-0.13151041666666666],[1],[0],[0],[1.2375309999915771],['target'],033335,001,2024-10-10_16h28.07.971,script,2024.2.1post4,60.08795675630589,2024-10-10 16h28.22.150023 +0530,
31,0,31,[-0.08072916666666667],[-0.02734375],[1],[0],[0],[0.8428799999528565],['target'],31,0,31,0,47.869553600030486,,5,47.8530018000165,47.869553600030486,47.869553600030486,0.03947610000614077,,48.69649450003635,[-0.08072916666666667],[-0.02734375],[1],[0],[0],[0.8428799999528565],['target'],033335,001,2024-10-10_16h28.07.971,script,2024.2.1post4,60.08795675630589,2024-10-10 16h28.22.150023 +0530,
32,0,32,[0.265625],[0.2877604166666667],[1],[0],[0],[0.8757301999721676],['target'],32,0,32,0,48.7547396000009,,5,48.73855830001412,48.7547396000009,48.7547396000009,0.04188969999086112,,49.61493480001809,[0.265625],[0.2877604166666667],[1],[0],[0],[0.8757301999721676],['target'],033335,001,2024-10-10_16h28.07.971,script,2024.2.1post4,60.08795675630589,2024-10-10 16h28.22.150023 +0530,
33,0,33,[-0.4713541666666667],[0.4153645833333333],[1],[0],[0],[1.6139792000176385],['target'],33,0,33,0,49.704947000020184,,10,49.68156340002315,49.704947000020184,49.704947000020184,0.06629710004199296,50.71123230003286,51.29619200003799,[-0.4713541666666667],[0.4153645833333333],[1],[0],[0],[1.6139792000176385],['target'],033335,001,2024-10-10_16h28.07.971,script,2024.2.1post4,60.08795675630589,2024-10-10 16h28.22.150023 +0530,
34,0,34,[0.11328125],[0.4153645833333333],[1],[0],[0],[1.2383907999610528],['target'],34,0,34,0,51.33995930000674,,5,51.3243652000092,51.33995930000674,51.33995930000674,0.02789869997650385,52.344141600013245,52.56340420001652,[0.11328125],[0.4153645833333333],[1],[0],[0],[1.2383907999610528],['target'],033335,001,2024-10-10_16h28.07.971,script,2024.2.1post4,60.08795675630589,2024-10-10 16h28.22.150023 +0530,
35,0,35,[0.028645833333333332],[-0.26953125],[1],[0],[0],[2.1298407000140287],['target'],35,0,35,0,52.658783600025345,,10,52.63209840003401,52.658783600025345,52.658783600025345,0.06849789997795597,53.66072410001652,54.76258790004067,[0.028645833333333332],[-0.26953125],[1],[0],[0],[2.1298407000140287],['target'],033335,001,2024-10-10_16h28.07.971,script,2024.2.1post4,60.08795675630589,2024-10-10 16h28.22.150023 +0530,
36,0,36,[0.0013020833333333333],[-0.26953125],[1],[0],[0],[0.782398600014858],['target'],36,0,36,0,54.85410470003262,,10,54.82975640002405,54.85410470003262,54.85410470003262,0.06692239997209981,,55.61270910000894,[0.0013020833333333333],[-0.26953125],[1],[0],[0],[0.782398600014858],['target'],033335,001,2024-10-10_16h28.07.971,script,2024.2.1post4,60.08795675630589,2024-10-10 16h28.22.150023 +0530,
37,0,37,[-0.4713541666666667],[-0.4791666666666667],[1],[0],[0],[2.5923545000259764],['target'],37,0,37,0,55.66890810005134,,5,55.65271560003748,55.66890810005134,55.66890810005134,0.03972920001251623,56.677191200025845,58.245767100015655,[-0.4713541666666667],[-0.4791666666666667],[1],[0],[0],[2.5923545000259764],['target'],033335,001,2024-10-10_16h28.07.971,script,2024.2.1post4,60.08795675630589,2024-10-10 16h28.22.150023 +0530,
38,0,38,[-0.2734375],[0.5],[1],[0],[0],[1.6467829000321217],['target'],38,0,38,0,58.323338700050954,,10,58.29987330001313,58.323338700050954,58.323338700050954,0.053907399997115135,59.32719750003889,59.9473906000494,[-0.2734375],[0.5],[1],[0],[0],[1.6467829000321217],['target'],033335,001,2024-10-10_16h28.07.971,script,2024.2.1post4,60.08795675630589,2024-10-10 16h28.22.150023 +0530,
39,0,39,[0.1484375],[-0.12369791666666667],[1],[0],[0],[1.1049766999785788],[None],39,0,39,0,59.98895030003041,,5,59.974574899999425,59.98895030003041,59.98895030003041,0.026922499993816018,60.99364160001278,61.08028520003427,[0.1484375],[-0.12369791666666667],[1],[0],[0],[1.1049766999785788],[None],033335,001,2024-10-10_16h28.07.971,script,2024.2.1post4,60.08795675630589,2024-10-10 16h28.22.150023 +0530,
40,0,40,[0.2890625],[0.46484375],[1],[0],[0],[1.4579947000020184],['target'],40,0,40,0,61.137949000054505,,5,61.1204498000443,61.137949000054505,61.137949000054505,0.03993360005551949,62.14390650001587,62.5790665000095,[0.2890625],[0.46484375],[1],[0],[0],[1.4579947000020184],['target'],033335,001,2024-10-10_16h28.07.971,script,2024.2.1post4,60.08795675630589,2024-10-10 16h28.22.150023 +0530,
41,0,41,[-0.38671875],[-0.07421875],[1],[0],[0],[1.818581700033974],[None],41,0,41,0,62.66595910000615,,10,62.64309590001358,62.66595910000615,62.66595910000615,0.06377860001521185,63.67736730002798,64.46232250001049,[-0.38671875],[-0.07421875],[1],[0],[0],[1.818581700033974],[None],033335,001,2024-10-10_16h28.07.971,script,2024.2.1post4,60.08795675630589,2024-10-10 16h28.22.150023 +0530,
42,0,42,[0.03125],[0.3255208333333333],[1],[0],[0],[1.0572810000157915],['target'],42,0,42,0,64.56847990001552,,10,64.53821840003366,64.56847990001552,64.56847990001552,0.07559769996441901,65.57679680001456,65.59607330005383,[0.03125],[0.3255208333333333],[1],[0],[0],[1.0572810000157915],['target'],033335,001,2024-10-10_16h28.07.971,script,2024.2.1post4,60.08795675630589,2024-10-10 16h28.22.150023 +0530,
43,0,43,[0.3307291666666667],[-0.29296875],[1],[0],[0],[1.2623888999805786],['target'],43,0,43,0,65.64867340005003,,5,65.63303600001382,65.64867340005003,65.64867340005003,0.03669230005471036,66.65992000000551,66.89611100003822,[0.3307291666666667],[-0.29296875],[1],[0],[0],[1.2623888999805786],['target'],033335,001,2024-10-10_16h28.07.971,script,2024.2.1post4,60.08795675630589,2024-10-10 16h28.22.150023 +0530,
44,0,44,[-0.4921875],[-0.4075520833333333],[1],[0],[0],[1.413297999999486],['target'],44,0,44,0,66.98924080003053,,10,66.96543640003074,66.98924080003053,66.98924080003053,0.06911310000577942,67.99375420005526,68.37963060004404,[-0.4921875],[-0.4075520833333333],[1],[0],[0],[1.413297999999486],['target'],033335,001,2024-10-10_16h28.07.971,script,2024.2.1post4,60.08795675630589,2024-10-10 16h28.22.150023 +0530,
45,0,45,[-0.32421875],[0.3997395833333333],[1],[0],[0],[1.4899141999776475],['target'],45,0,45,0,68.43764940003166,,5,68.42263770004502,68.43764940003166,68.43764940003166,0.04268499999307096,69.44350430002669,69.91321310005151,[-0.32421875],[0.3997395833333333],[1],[0],[0],[1.4899141999776475],['target'],033335,001,2024-10-10_16h28.07.971,script,2024.2.1post4,60.08795675630589,2024-10-10 16h28.22.150023 +0530,
46,0,46,[0.30078125],[-0.01953125],[1],[0],[0],[1.0955981999868527],['target'],46,0,46,0,69.98867320001591,,10,69.96656140004052,69.98867320001591,69.98867320001591,0.05314370000269264,70.99342170002637,71.06278650002787,[0.30078125],[-0.01953125],[1],[0],[0],[1.0955981999868527],['target'],033335,001,2024-10-10_16h28.07.971,script,2024.2.1post4,60.08795675630589,2024-10-10 16h28.22.150023 +0530,
47,0,47,[-0.5052083333333334],[0.3619791666666667],[1],[0],[0],[0.9672204999951646],[None],47,0,47,0,71.11093700001948,,5,71.09589290001895,71.11093700001948,71.11093700001948,0.03283639997243881,,72.06385460001184,[-0.5052083333333334],[0.3619791666666667],[1],[0],[0],[0.9672204999951646],[None],033335,001,2024-10-10_16h28.07.971,script,2024.2.1post4,60.08795675630589,2024-10-10 16h28.22.150023 +0530,
48,0,48,[-0.359375],[-0.08463541666666667],[1],[0],[0],[1.0372016000328586],['target'],48,0,48,0,72.10727730003418,,5,72.09149600000819,72.10727730003418,72.10727730003418,0.02742729999590665,73.10982820001664,73.12929180002538,[-0.359375],[-0.08463541666666667],[1],[0],[0],[1.0372016000328586],['target'],033335,001,2024-10-10_16h28.07.971,script,2024.2.1post4,60.08795675630589,2024-10-10 16h28.22.150023 +0530,
49,0,49,[0.24348958333333334],[0.15104166666666666],[1],[0],[0],[1.4899083999916911],['target'],49,0,49,0,73.23123260005377,,10,73.20578180003213,73.23123260005377,73.23123260005377,0.07629529997939244,74.24375480000162,74.69628240005113,[0.24348958333333334],[0.15104166666666666],[1],[0],[0],[1.4899083999916911],['target'],033335,001,2024-10-10_16h28.07.971,script,2024.2.1post4,60.08795675630589,2024-10-10 16h28.22.150023 +0530,
50,0,50,[0.13671875],[0.09505208333333333],[1],[0],[0],[1.066555800032802],['target'],50,0,50,0,74.74653400003444,,5,74.72870830004103,74.74653400003444,74.74653400003444,0.03209130000323057,75.76029970002128,75.79587670002365,[0.13671875],[0.09505208333333333],[1],[0],[0],[1.066555800032802],['target'],033335,001,2024-10-10_16h28.07.971,script,2024.2.1post4,60.08795675630589,2024-10-10 16h28.22.150023 +0530,
51,0,51,[-0.4739583333333333],[-0.13541666666666666],[1],[0],[0],[0.9395827000262216],['target'],51,0,51,0,75.83792990003712,,5,75.82249840005534,75.83792990003712,75.83792990003712,0.02640670002438128,,76.76268030004576,[-0.4739583333333333],[-0.13541666666666666],[1],[0],[0],[0.9395827000262216],['target'],033335,001,2024-10-10_16h28.07.971,script,2024.2.1post4,60.08795675630589,2024-10-10 16h28.22.150023 +0530,
52,0,52,[0.24479166666666666],[0.20963541666666666],[1],[0],[0],[1.661657600023318],['target'],52,0,52,0,76.85798380000051,,10,76.83266450004885,76.85798380000051,76.85798380000051,0.0697918999940157,77.8595750000095,78.4950291000423,[0.24479166666666666],[0.20963541666666666],[1],[0],[0],[1.661657600023318],['target'],033335,001,2024-10-10_16h28.07.971,script,2024.2.1post4,60.08795675630589,2024-10-10 16h28.22.150023 +0530,
53,0,53,[-0.33984375],[0.044270833333333336],[1],[0],[0],[0.8736442999797873],['target'],53,0,53,0,78.53714850003598,,5,78.52165700000478,78.53714850003598,78.53714850003598,0.026372199994511902,,79.39625970000634,[-0.33984375],[0.044270833333333336],[1],[0],[0],[0.8736442999797873],['target'],033335,001,2024-10-10_16h28.07.971,script,2024.2.1post4,60.08795675630589,2024-10-10 16h28.22.150023 +0530,
54,0,54,[0.3138020833333333],[0.04296875],[1],[0],[0],[1.3285819999873638],['target'],54,0,54,0,79.49051840003813,,10,79.46659600001294,79.49051840003813,79.49051840003813,0.07005380000919104,80.49281610001344,80.79599860002054,[0.3138020833333333],[0.04296875],[1],[0],[0],[1.3285819999873638],['target'],033335,001,2024-10-10_16h28.07.971,script,2024.2.1post4,60.08795675630589,2024-10-10 16h28.22.150023 +0530,
55,0,55,[-0.4791666666666667],[-0.23177083333333334],[1],[0],[0],[0.9945892000105232],['target'],55,0,55,0,80.87353969999822,,10,80.85025690001203,80.87353969999822,80.87353969999822,0.05399440001929179,,81.84570689999964,[-0.4791666666666667],[-0.23177083333333334],[1],[0],[0],[0.9945892000105232],['target'],033335,001,2024-10-10_16h28.07.971,script,2024.2.1post4,60.08795675630589,2024-10-10 16h28.22.150023 +0530,
56,0,56,[-0.41015625],[0.46875],[1],[0],[0],[2.3067647999851033],['target'],56,0,56,0,81.88801490003243,,5,81.8720130000147,81.88801490003243,81.88801490003243,0.026063399971462786,82.89265790005447,84.17956480005523,[-0.41015625],[0.46875],[1],[0],[0],[2.3067647999851033],['target'],033335,001,2024-10-10_16h28.07.971,script,2024.2.1post4,60.08795675630589,2024-10-10 16h28.22.150023 +0530,
57,0,57,[-0.10026041666666667],[0.24609375],[1],[0],[0],[0.9131785000208765],['target'],57,0,57,0,84.27203450002708,,10,84.24787300004391,84.27203450002708,84.27203450002708,0.06807600002503023,,85.16167410003254,[-0.10026041666666667],[0.24609375],[1],[0],[0],[0.9131785000208765],['target'],033335,001,2024-10-10_16h28.07.971,script,2024.2.1post4,60.08795675630589,2024-10-10 16h28.22.150023 +0530,
58,0,58,[-0.39453125],[-0.08723958333333333],[1],[0],[0],[1.1898654999677092],['target'],58,0,58,0,85.20394410000881,,5,85.18915099999867,85.20394410000881,85.20394410000881,0.027205599995795637,86.20916170004057,86.37981530005345,[-0.39453125],[-0.08723958333333333],[1],[0],[0],[1.1898654999677092],['target'],033335,001,2024-10-10_16h28.07.971,script,2024.2.1post4,60.08795675630589,2024-10-10 16h28.22.150023 +0530,
59,0,59,[0.2591145833333333],[0.3385416666666667],[1],[0],[0],[1.1998654000344686],['target'],59,0,59,0,86.46771170001011,,10,86.443885900022,86.46771170001011,86.46771170001011,0.06386009999550879,87.47621470002923,87.6443600000348,[0.2591145833333333],[0.3385416666666667],[1],[0],[0],[1.1998654000344686],['target'],033335,001,2024-10-10_16h28.07.971,script,2024.2.1post4,60.08795675630589,2024-10-10 16h28.22.150023 +0530,
60,0,60,[-0.19401041666666666],[-0.4205729166666667],[1],[0],[0],[1.8893962999572977],['target'],60,0,60,0,87.68702090001898,,5,87.67145100003108,87.68702090001898,87.68702090001898,0.02684209996368736,88.69255230005365,89.56156130001182,[-0.19401041666666666],[-0.4205729166666667],[1],[0],[0],[1.8893962999572977],['target'],033335,001,2024-10-10_16h28.07.971,script,2024.2.1post4,60.08795675630589,2024-10-10 16h28.22.150023 +0530,
61,0,61,[0.35546875],[-0.07291666666666667],[1],[0],[0],[1.0880742999725044],[None],61,0,61,0,89.60392200003844,,5,89.5888570000534,89.60392200003844,89.60392200003844,0.02707790001295507,90.6087908000336,90.67776900000172,[0.35546875],[-0.07291666666666667],[1],[0],[0],[1.0880742999725044],[None],033335,001,2024-10-10_16h28.07.971,script,2024.2.1post4,60.08795675630589,2024-10-10 16h28.22.150023 +0530,
62,0,62,[0.41796875],[-0.005208333333333333],[1],[0],[0],[1.5553297000005841],['target'],62,0,62,0,90.72139550000429,,5,90.70626290002838,90.72139550000429,90.72139550000429,0.028279799968004227,91.72611670003971,92.26223580003716,[0.41796875],[-0.005208333333333333],[1],[0],[0],[1.5553297000005841],['target'],033335,001,2024-10-10_16h28.07.971,script,2024.2.1post4,60.08795675630589,2024-10-10 16h28.22.150023 +0530,
63,0,63,[0.3450520833333333],[0.16927083333333334],[1],[0],[0],[1.6432134000351653],['target'],63,0,63,0,92.34078850003425,,10,92.31683360005263,92.34078850003425,92.34078850003425,0.054391999961808324,93.34257210005308,93.96068840002408,[0.3450520833333333],[0.16927083333333334],[1],[0],[0],[1.6432134000351653],['target'],033335,001,2024-10-10_16h28.07.971,script,2024.2.1post4,60.08795675630589,2024-10-10 16h28.22.150023 +0530,
64,0,64,[-0.20572916666666666],[-0.4075520833333333],[1],[0],[0],[2.2460447999765165],['target'],64,0,64,0,94.03929290000815,,10,94.01531780004734,94.03929290000815,94.03929290000815,0.05435249995207414,95.04203130002134,96.26193230005447,[-0.20572916666666666],[-0.4075520833333333],[1],[0],[0],[2.2460447999765165],['target'],033335,001,2024-10-10_16h28.07.971,script,2024.2.1post4,60.08795675630589,2024-10-10 16h28.22.150023 +0530,
65,0,65,[0.20572916666666666],[0.38671875],[1],[0],[0],[1.4287158999941312],['target'],65,0,65,0,96.33907390001696,,10,96.31576130003668,96.33907390001696,96.33907390001696,0.05359149997821078,97.34190930001205,97.74517730000662,[0.20572916666666666],[0.38671875],[1],[0],[0],[1.4287158999941312],['target'],033335,001,2024-10-10_16h28.07.971,script,2024.2.1post4,60.08795675630589,2024-10-10 16h28.22.150023 +0530,
66,0,66,[0.3528645833333333],[0.33203125],[1],[0],[0],[1.2818484000163153],['target'],66,0,66,0,97.83556370000588,,10,97.81230340001639,97.83556370000588,97.83556370000588,0.06685120001202449,98.84178200003225,99.09489659999963,[0.3528645833333333],[0.33203125],[1],[0],[0],[1.2818484000163153],['target'],033335,001,2024-10-10_16h28.07.971,script,2024.2.1post4,60.08795675630589,2024-10-10 16h28.22.150023 +0530,
67,0,67,[-0.265625],[-0.06510416666666667],[1],[0],[0],[1.2450088000041433],['target'],67,0,67,0,99.17254970001522,,10,99.14866070001153,99.17254970001522,99.17254970001522,0.0535018999944441,100.17545100004645,100.39429960004054,[-0.265625],[-0.06510416666666667],[1],[0],[0],[1.2450088000041433],['target'],033335,001,2024-10-10_16h28.07.971,script,2024.2.1post4,60.08795675630589,2024-10-10 16h28.22.150023 +0530,
68,0,68,[0.19010416666666666],[0.4309895833333333],[1],[0],[0],[1.0246922000078484],['target'],68,0,68,0,100.45084800000768,,5,100.43521560000954,100.45084800000768,100.45084800000768,0.04067010001745075,101.45835369999986,101.46057350002229,[0.19010416666666666],[0.4309895833333333],[1],[0],[0],[1.0246922000078484],['target'],033335,001,2024-10-10_16h28.07.971,script,2024.2.1post4,60.08795675630589,2024-10-10 16h28.22.150023 +0530,
69,0,69,[0.4934895833333333],[-0.2578125],[1],[0],[0],[2.8279244999866933],['target'],69,0,69,0,101.54218670004047,,10,101.51624900003662,101.54218670004047,101.54218670004047,0.05545329995220527,102.54152630001772,104.3450444000191,[0.4934895833333333],[-0.2578125],[1],[0],[0],[2.8279244999866933],['target'],033335,001,2024-10-10_16h28.07.971,script,2024.2.1post4,60.08795675630589,2024-10-10 16h28.22.150023 +0530,
70,0,70,[0.20963541666666666],[0.4934895833333333],[1],[0],[0],[7.5114773999666795],['target'],70,0,70,0,104.43628720002016,,10,104.39847100002225,104.43628720002016,104.43628720002016,0.053156200039666146,105.44197470002109,111.9105891000363,[0.20963541666666666],[0.4934895833333333],[1],[0],[0],[7.5114773999666795],['target'],033335,001,2024-10-10_16h28.07.971,script,2024.2.1post4,60.08795675630589,2024-10-10 16h28.22.150023 +0530,
71,0,71,[0.14973958333333334],[0.09244791666666667],[1],[0],[0],[1.2264561000047252],['target'],71,0,71,0,111.99189270002535,,10,111.96712670003762,111.99189270002535,111.99189270002535,0.05627749999985099,112.99140290002106,113.1942608000245,[0.14973958333333334],[0.09244791666666667],[1],[0],[0],[1.2264561000047252],['target'],033335,001,2024-10-10_16h28.07.971,script,2024.2.1post4,60.08795675630589,2024-10-10 16h28.22.150023 +0530,
72,0,72,[0.3684895833333333],[-0.21354166666666666],[1],[0],[0],[1.1554017000016756],['target'],72,0,72,0,113.23672290000832,,5,113.2216560000088,113.23672290000832,113.23672290000832,0.027202800032682717,114.2414165000082,114.37776570004644,[0.3684895833333333],[-0.21354166666666666],[1],[0],[0],[1.1554017000016756],['target'],033335,001,2024-10-10_16h28.07.971,script,2024.2.1post4,60.08795675630589,2024-10-10 16h28.22.150023 +0530,
73,0,73,[0.2760416666666667],[0.11979166666666667],[1],[0],[0],[1.4104591000359505],['target'],73,0,73,0,114.45888330001617,,10,114.43312800000422,114.45888330001617,114.45888330001617,0.05513739999150857,115.47445290000178,115.8442646000185,[0.2760416666666667],[0.11979166666666667],[1],[0],[0],[1.4104591000359505],['target'],033335,001,2024-10-10_16h28.07.971,script,2024.2.1post4,60.08795675630589,2024-10-10 16h28.22.150023 +0530,
74,0,74,[-0.0390625],[-0.4739583333333333],[1],[0],[0],[2.3043064000084996],['target'],74,0,74,0,115.88731080002617,,5,115.87212390004424,115.88731080002617,115.88731080002617,0.027574700012337416,116.89071290002903,118.17704790004063,[-0.0390625],[-0.4739583333333333],[1],[0],[0],[2.3043064000084996],['target'],033335,001,2024-10-10_16h28.07.971,script,2024.2.1post4,60.08795675630589,2024-10-10 16h28.22.150023 +0530,
75,0,75,[0.3736979166666667],[0.07942708333333333],[1],[0],[0],[1.487994599970989],['target'],75,0,75,0,118.21978320000926,,5,118.2048802000354,118.21978320000926,118.21978320000926,0.027606100018601865,119.22404660005122,119.6935322000063,[0.3736979166666667],[0.07942708333333333],[1],[0],[0],[1.487994599970989],['target'],033335,001,2024-10-10_16h28.07.971,script,2024.2.1post4,60.08795675630589,2024-10-10 16h28.22.150023 +0530,
76,0,76,[-0.22916666666666666],[-0.06901041666666667],[1],[0],[0],[1.11081360001117],['target'],76,0,76,0,119.77237120002974,,10,119.74789150001016,119.77237120002974,119.77237120002974,0.054163899971172214,120.77418720000423,120.85934260004433,[-0.22916666666666666],[-0.06901041666666667],[1],[0],[0],[1.11081360001117],['target'],033335,001,2024-10-10_16h28.07.971,script,2024.2.1post4,60.08795675630589,2024-10-10 16h28.22.150023 +0530,
77,0,77,[-0.18098958333333334],[-0.3203125],[1],[0],[0],[0.9106853000121191],['target'],77,0,77,0,120.93979870004114,,10,120.91475880000507,120.93979870004114,120.93979870004114,0.0551098000141792,,121.8260239000083,[-0.18098958333333334],[-0.3203125],[1],[0],[0],[0.9106853000121191],['target'],033335,001,2024-10-10_16h28.07.971,script,2024.2.1post4,60.08795675630589,2024-10-10 16h28.22.150023 +0530,
78,0,78,[-0.46484375],[-0.4088541666666667],[1],[0],[0],[1.3048917999840342],[None],78,0,78,0,121.9155295000528,,10,121.88850430003367,121.9155295000528,121.9155295000528,0.06220519996713847,122.92393119999906,123.19405280001229,[-0.46484375],[-0.4088541666666667],[1],[0],[0],[1.3048917999840342],[None],033335,001,2024-10-10_16h28.07.971,script,2024.2.1post4,60.08795675630589,2024-10-10 16h28.22.150023 +0530,
79,0,79,[0.05078125],[-0.21875],[1],[0],[0],[1.0765335999894887],['target'],79,0,79,0,123.27380990004167,,10,123.25024790002499,123.27380990004167,123.27380990004167,0.05588780000107363,124.2741296000313,124.32742890005466,[0.05078125],[-0.21875],[1],[0],[0],[1.0765335999894887],['target'],033335,001,2024-10-10_16h28.07.971,script,2024.2.1post4,60.08795675630589,2024-10-10 16h28.22.150023 +0530,
80,0,80,[-0.040364583333333336],[0.40234375],[1],[0],[0],[1.6275681999977678],['target'],80,0,80,0,124.40572229999816,,10,124.38154570001643,124.40572229999816,124.40572229999816,0.053872100019361824,125.40727720002178,126.00977120001335,[-0.040364583333333336],[0.40234375],[1],[0],[0],[1.6275681999977678],['target'],033335,001,2024-10-10_16h28.07.971,script,2024.2.1post4,60.08795675630589,2024-10-10 16h28.22.150023 +0530,
81,0,81,[-0.3658854166666667],[-0.015625],[1],[0],[0],[1.083723999967333],['target'],81,0,81,0,126.08293200004846,,10,126.05987500003539,126.08293200004846,126.08293200004846,0.049878699996043,127.09081410005456,127.14437910000561,[-0.3658854166666667],[-0.015625],[1],[0],[0],[1.083723999967333],['target'],033335,001,2024-10-10_16h28.07.971,script,2024.2.1post4,60.08795675630589,2024-10-10 16h28.22.150023 +0530,
82,0,82,[0.2799479166666667],[-0.34375],[1],[0],[0],[1.7780078999930993],['target'],82,0,82,0,127.2252906000358,,10,127.198611800035,127.2252906000358,127.2252906000358,0.05398369999602437,128.24084050004603,128.9772642000462,[0.2799479166666667],[-0.34375],[1],[0],[0],[1.7780078999930993],['target'],033335,001,2024-10-10_16h28.07.971,script,2024.2.1post4,60.08795675630589,2024-10-10 16h28.22.150023 +0530,
83,0,83,[0.4479166666666667],[-0.4322916666666667],[1],[0],[0],[2.142150500032585],[None],83,0,83,0,129.059900799999,,10,129.03443870000774,129.059900799999,129.059900799999,0.0568970000022091,130.07369570003357,131.1772167000454,[0.4479166666666667],[-0.4322916666666667],[1],[0],[0],[2.142150500032585],[None],033335,001,2024-10-10_16h28.07.971,script,2024.2.1post4,60.08795675630589,2024-10-10 16h28.22.150023 +0530,
84,0,84,[0.36328125],[0.45703125],[1],[0],[0],[2.4211571000050753],['target'],84,0,84,0,131.21950970002217,,5,131.20447390002664,131.21950970002217,131.21950970002217,0.027001800015568733,132.22360960004153,133.62626160000218,[0.36328125],[0.45703125],[1],[0],[0],[2.4211571000050753],['target'],033335,001,2024-10-10_16h28.07.971,script,2024.2.1post4,60.08795675630589,2024-10-10 16h28.22.150023 +0530,
85,0,85,[-0.3828125],[-0.125],[1],[0],[0],[1.0526772000011988],['target'],85,0,85,0,133.67627680004807,,5,133.65574720001314,133.67627680004807,133.67627680004807,0.029240600008051842,134.69027110002935,134.7091295000282,[-0.3828125],[-0.125],[1],[0],[0],[1.0526772000011988],['target'],033335,001,2024-10-10_16h28.07.971,script,2024.2.1post4,60.08795675630589,2024-10-10 16h28.22.150023 +0530,
86,0,86,[0.23046875],[0.21223958333333334],[1],[0],[0],[1.4274563000071794],[None],86,0,86,0,134.7876074000378,,10,134.76417390001006,134.7876074000378,134.7876074000378,0.05485010001575574,135.78987840004265,136.1921967000235,[0.23046875],[0.21223958333333334],[1],[0],[0],[1.4274563000071794],[None],033335,001,2024-10-10_16h28.07.971,script,2024.2.1post4,60.08795675630589,2024-10-10 16h28.22.150023 +0530,
87,0,87,[-0.03125],[-0.16796875],[1],[0],[0],[1.4083639000309631],['target'],87,0,87,0,136.2761883000494,,10,136.25035380001646,136.2761883000494,136.2761883000494,0.05788000003667548,137.29024990001926,137.6592629000079,[-0.03125],[-0.16796875],[1],[0],[0],[1.4083639000309631],['target'],033335,001,2024-10-10_16h28.07.971,script,2024.2.1post4,60.08795675630589,2024-10-10 16h28.22.150023 +0530,
88,0,88,[0.2109375],[0.26171875],[1],[0],[0],[1.2633182000136003],['target'],88,0,88,0,137.7544985000277,,10,137.728966100025,137.7544985000277,137.7544985000277,0.06944340001791716,138.7565880000475,138.99288309999974,[0.2109375],[0.26171875],[1],[0],[0],[1.2633182000136003],['target'],033335,001,2024-10-10_16h28.07.971,script,2024.2.1post4,60.08795675630589,2024-10-10 16h28.22.150023 +0530,
89,0,89,[0.41796875],[-0.4479166666666667],[1],[0],[0],[1.7289665000280365],['target'],89,0,89,0,139.0702910000109,,10,139.04656640003668,139.0702910000109,139.0702910000109,0.05342040001414716,140.07324450003216,140.77607900003204,[0.41796875],[-0.4479166666666667],[1],[0],[0],[1.7289665000280365],['target'],033335,001,2024-10-10_16h28.07.971,script,2024.2.1post4,60.08795675630589,2024-10-10 16h28.22.150023 +0530,
90,0,90,[-0.024739583333333332],[0.13932291666666666],[1],[0],[0],[1.0575076999957673],['target'],90,0,90,0,140.8337686000159,,5,140.817625900032,140.8337686000159,140.8337686000159,0.041285699990112334,141.84020630002487,141.87579760001972,[-0.024739583333333332],[0.13932291666666666],[1],[0],[0],[1.0575076999957673],['target'],033335,001,2024-10-10_16h28.07.971,script,2024.2.1post4,60.08795675630589,2024-10-10 16h28.22.150023 +0530,
91,0,91,[-0.42578125],[-0.3658854166666667],[1],[0],[0],[1.4271774999797344],[None],91,0,91,0,141.95864980004262,,10,141.93163810000988,141.95864980004262,141.95864980004262,0.05564779997803271,142.9730081000016,143.3594948000391,[-0.42578125],[-0.3658854166666667],[1],[0],[0],[1.4271774999797344],[None],033335,001,2024-10-10_16h28.07.971,script,2024.2.1post4,60.08795675630589,2024-10-10 16h28.22.150023 +0530,
92,0,92,[0.20182291666666666],[0.1796875],[1],[0],[0],[1.850490000040736],['target'],92,0,92,0,143.4504111999995,,10,143.42471069999738,143.4504111999995,143.4504111999995,0.06496309995418414,144.45686710003065,145.27587540005334,[0.20182291666666666],[0.1796875],[1],[0],[0],[1.850490000040736],['target'],033335,001,2024-10-10_16h28.07.971,script,2024.2.1post4,60.08795675630589,2024-10-10 16h28.22.150023 +0530,
93,0,93,[-0.20052083333333334],[0.09375],[1],[0],[0],[1.0721574000199325],['target'],93,0,93,0,145.31700740003726,,5,145.3026146000484,145.31700740003726,145.31700740003726,0.026534600008744746,146.32346210000105,146.37548960000277,[-0.20052083333333334],[0.09375],[1],[0],[0],[1.0721574000199325],['target'],033335,001,2024-10-10_16h28.07.971,script,2024.2.1post4,60.08795675630589,2024-10-10 16h28.22.150023 +0530,
94,0,94,[-0.21484375],[-0.23307291666666666],[1],[0],[0],[0.9953206000500359],['target'],94,0,94,0,146.42990060005104,,5,146.4126615000423,146.42990060005104,146.42990060005104,0.03704409999772906,,147.40863180003362,[-0.21484375],[-0.23307291666666666],[1],[0],[0],[0.9953206000500359],['target'],033335,001,2024-10-10_16h28.07.971,script,2024.2.1post4,60.08795675630589,2024-10-10 16h28.22.150023 +0530,
95,0,95,[-0.18880208333333334],[0.4427083333333333],[1],[0],[0],[1.2962717000045814],['target'],95,0,95,0,147.4872641999973,,10,147.46232900000177,147.4872641999973,147.4872641999973,0.05347610003082082,148.4892538000131,148.7592197000049,[-0.18880208333333334],[0.4427083333333333],[1],[0],[0],[1.2962717000045814],['target'],033335,001,2024-10-10_16h28.07.971,script,2024.2.1post4,60.08795675630589,2024-10-10 16h28.22.150023 +0530,
96,0,96,[0.08984375],[-0.014322916666666666],[1],[0],[0],[1.4492748999618925],['target'],96,0,96,0,148.8319798000157,,10,148.80962110002292,148.8319798000157,148.8319798000157,0.050101300003007054,149.83963010000298,150.2595672000316,[0.08984375],[-0.014322916666666666],[1],[0],[0],[1.4492748999618925],['target'],033335,001,2024-10-10_16h28.07.971,script,2024.2.1post4,60.08795675630589,2024-10-10 16h28.22.150023 +0530,
97,0,97,[-0.08984375],[0.033854166666666664],[1],[0],[0],[1.7312241999898106],[None],97,0,97,0,150.35124490002636,,10,150.32779210002627,150.35124490002636,150.35124490002636,0.0679727999959141,151.35605200001737,152.0595839000307,[-0.08984375],[0.033854166666666664],[1],[0],[0],[1.7312241999898106],[None],033335,001,2024-10-10_16h28.07.971,script,2024.2.1post4,60.08795675630589,2024-10-10 16h28.22.150023 +0530,
98,0,98,[-0.3854166666666667],[-0.46484375],[1],[0],[0],[1.3087380999932066],[None],98,0,98,0,152.114519499999,,5,152.0993914999999,152.114519499999,152.114519499999,0.039500400016549975,153.12253079999937,153.40876830002526,[-0.3854166666666667],[-0.46484375],[1],[0],[0],[1.3087380999932066],[None],033335,001,2024-10-10_16h28.07.971,script,2024.2.1post4,60.08795675630589,2024-10-10 16h28.22.150023 +0530,
99,0,99,[-0.0390625],[0.06380208333333333],[1],[0],[0],[1.7459428000147454],['target'],99,0,99,0,153.50170820002677,,10,153.47863450000295,153.50170820002677,153.50170820002677,0.06954950001090765,154.50583280000137,155.22513880004408,[-0.0390625],[0.06380208333333333],[1],[0],[0],[1.7459428000147454],['target'],033335,001,2024-10-10_16h28.07.971,script,2024.2.1post4,60.08795675630589,2024-10-10 16h28.22.150023 +0530,
100,0,100,[-0.2760416666666667],[-0.3541666666666667],[1],[0],[0],[0.7390958999749273],[None],100,0,100,0,155.26803160004783,,5,155.2525438000448,155.26803160004783,155.26803160004783,0.027141999977175146,,155.9925559000112,[-0.2760416666666667],[-0.3541666666666667],[1],[0],[0],[0.7390958999749273],[None],033335,001,2024-10-10_16h28.07.971,script,2024.2.1post4,60.08795675630589,2024-10-10 16h28.22.150023 +0530,
101,0,101,[0.3763020833333333],[-0.12239583333333333],[1],[0],[0],[1.4246117000002414],['target'],101,0,101,0,156.04934140003752,,5,156.03319400001783,156.04934140003752,156.04934140003752,0.04040450003230944,157.05600250000134,157.45845770003507,[0.3763020833333333],[-0.12239583333333333],[1],[0],[0],[1.4246117000002414],['target'],033335,001,2024-10-10_16h28.07.971,script,2024.2.1post4,60.08795675630589,2024-10-10 16h28.22.150023 +0530,
102,0,102,[0.4375],[-0.22005208333333334],[1],[0],[0],[1.1653931000037119],['target'],102,0,102,0,157.55019480001647,,10,157.5261906000087,157.55019480001647,157.55019480001647,0.06751610001083463,158.5560403999989,158.69228519999888,[0.4375],[-0.22005208333333334],[1],[0],[0],[1.1653931000037119],['target'],033335,001,2024-10-10_16h28.07.971,script,2024.2.1post4,60.08795675630589,2024-10-10 16h28.22.150023 +0530,
103,0,103,[-0.3111979166666667],[0.21875],[1],[0],[0],[1.5262793999863788],['target'],103,0,103,0,158.7728410999989,,10,158.7478906000033,158.7728410999989,158.7728410999989,0.05532309995032847,159.7722404000233,160.27479100000346,[-0.3111979166666667],[0.21875],[1],[0],[0],[1.5262793999863788],['target'],033335,001,2024-10-10_16h28.07.971,script,2024.2.1post4,60.08795675630589,2024-10-10 16h28.22.150023 +0530,
104,0,104,[0.3645833333333333],[0.020833333333333332],[1],[0],[0],[1.3559461999684572],['target'],104,0,104,0,160.3173713000142,,5,160.30103860003874,160.3173713000142,160.3173713000142,0.025994000025093555,161.32213280000724,161.65765870001633,[0.3645833333333333],[0.020833333333333332],[1],[0],[0],[1.3559461999684572],['target'],033335,001,2024-10-10_16h28.07.971,script,2024.2.1post4,60.08795675630589,2024-10-10 16h28.22.150023 +0530,
105,0,105,[-0.3033854166666667],[-0.12630208333333334],[1],[0],[0],[1.093910999945365],['target'],105,0,105,0,161.73812380002346,,10,161.7130090999999,161.73812380002346,161.73812380002346,0.05513499997323379,162.73930910002673,162.80749680002918,[-0.3033854166666667],[-0.12630208333333334],[1],[0],[0],[1.093910999945365],['target'],033335,001,2024-10-10_16h28.07.971,script,2024.2.1post4,60.08795675630589,2024-10-10 16h28.22.150023 +0530,
106,0,106,[0.15885416666666666],[0.44140625],[1],[0],[0],[1.4089759000344202],['target'],106,0,106,0,162.86428450001404,,5,162.8485957000521,162.86428450001404,162.86428450001404,0.040829100005794317,163.87236940005096,164.2581895000185,[0.15885416666666666],[0.44140625],[1],[0],[0],[1.4089759000344202],['target'],033335,001,2024-10-10_16h28.07.971,script,2024.2.1post4,60.08795675630589,2024-10-10 16h28.22.150023 +0530,
107,0,107,[-0.3658854166666667],[0.06640625],[1],[0],[0],[1.184077400015667],['target'],107,0,107,0,164.3450959000038,,10,164.32307939999737,164.3450959000038,164.3450959000038,0.06467520003207028,165.35559079999803,165.5079799000523,[-0.3658854166666667],[0.06640625],[1],[0],[0],[1.184077400015667],['target'],033335,001,2024-10-10_16h28.07.971,script,2024.2.1post4,60.08795675630589,2024-10-10 16h28.22.150023 +0530,
108,0,108,[0.10416666666666667],[-0.028645833333333332],[1],[0],[0],[0.9425621999544092],[None],108,0,108,0,165.68296100001317,,5,165.54756690002978,165.68296100001317,165.68296100001317,0.03932630002964288,,166.49076390004484,[0.10416666666666667],[-0.028645833333333332],[1],[0],[0],[0.9425621999544092],[None],033335,001,2024-10-10_16h28.07.971,script,2024.2.1post4,60.08795675630589,2024-10-10 16h28.22.150023 +0530,
109,0,109,[-0.4869791666666667],[0.453125],[1],[0],[0],[2.437692200008314],['target'],109,0,109,0,166.53805520001333,,5,166.52005730004748,166.53805520001333,166.53805520001333,0.029108499991707504,167.53867810004158,168.95834670000477,[-0.4869791666666667],[0.453125],[1],[0],[0],[2.437692200008314],['target'],033335,001,2024-10-10_16h28.07.971,script,2024.2.1post4,60.08795675630589,2024-10-10 16h28.22.150023 +0530,
110,0,110,[0.359375],[0.4361979166666667],[1],[0],[0],[1.97171030001482],['target'],110,0,110,0,169.013646300009,,5,168.98533090000274,169.013646300009,169.013646300009,0.026891500048805028,170.02188840002054,170.957655300037,[0.359375],[0.4361979166666667],[1],[0],[0],[1.97171030001482],['target'],033335,001,2024-10-10_16h28.07.971,script,2024.2.1post4,60.08795675630589,2024-10-10 16h28.22.150023 +0530,
111,0,111,[-0.171875],[-0.3841145833333333],[1],[0],[0],[1.0374223999679089],[None],111,0,111,0,171.00042540003778,,5,170.9856068000081,171.00042540003778,171.00042540003778,0.02773249999154359,172.0051492000348,172.02367720002076,[-0.171875],[-0.3841145833333333],[1],[0],[0],[1.0374223999679089],[None],033335,001,2024-10-10_16h28.07.971,script,2024.2.1post4,60.08795675630589,2024-10-10 16h28.22.150023 +0530,
112,0,112,[0.17838541666666666],[-0.037760416666666664],[1],[0],[0],[1.841972700029146],[None],112,0,112,0,172.10732450004434,,10,172.08171080000466,172.10732450004434,172.10732450004434,0.05783350003184751,173.12166670005536,173.92435840005055,[0.17838541666666666],[-0.037760416666666664],[1],[0],[0],[1.841972700029146],[None],033335,001,2024-10-10_16h28.07.971,script,2024.2.1post4,60.08795675630589,2024-10-10 16h28.22.150023 +0530,
113,0,113,[0.059895833333333336],[-0.03515625],[1],[0],[0],[2.1074320999905467],['target'],113,0,113,0,174.00806730001932,,10,173.98330240003997,174.00806730001932,174.00806730001932,0.05869239999447018,175.02148029999807,176.09134430001723,[0.059895833333333336],[-0.03515625],[1],[0],[0],[2.1074320999905467],['target'],033335,001,2024-10-10_16h28.07.971,script,2024.2.1post4,60.08795675630589,2024-10-10 16h28.22.150023 +0530,
114,0,114,[-0.3723958333333333],[0.3567708333333333],[1],[0],[0],[1.7225508999545127],['target'],114,0,114,0,176.13345230004052,,5,176.11799650004832,176.13345230004052,176.13345230004052,0.026339499978348613,177.13851450005313,177.8411400000332,[-0.3723958333333333],[0.3567708333333333],[1],[0],[0],[1.7225508999545127],['target'],033335,001,2024-10-10_16h28.07.971,script,2024.2.1post4,60.08795675630589,2024-10-10 16h28.22.150023 +0530,
115,0,115,[0.3450520833333333],[-0.44140625],[1],[0],[0],[2.812267100031022],['target'],115,0,115,0,177.89281170000322,,5,177.87785650003934,177.89281170000322,177.89281170000322,0.0364735999610275,178.90470990003087,180.69079010002315,[0.3450520833333333],[-0.44140625],[1],[0],[0],[2.812267100031022],['target'],033335,001,2024-10-10_16h28.07.971,script,2024.2.1post4,60.08795675630589,2024-10-10 16h28.22.150023 +0530,
116,0,116,[0.3932291666666667],[0.11458333333333333],[1],[0],[0],[1.223195799975656],[None],116,0,116,0,180.731188500009,,5,180.71645970002282,180.731188500009,180.731188500009,0.02547200000844896,181.7384818000137,181.94030480005313,[0.3932291666666667],[0.11458333333333333],[1],[0],[0],[1.223195799975656],[None],033335,001,2024-10-10_16h28.07.971,script,2024.2.1post4,60.08795675630589,2024-10-10 16h28.22.150023 +0530,
117,0,117,[-0.3541666666666667],[0.0703125],[1],[0],[0],[1.8222749999840744],[None],117,0,117,0,181.9826157000498,,5,181.96727800002554,181.9826157000498,181.9826157000498,0.026704100018832833,182.98809350002557,183.79019670002162,[-0.3541666666666667],[0.0703125],[1],[0],[0],[1.8222749999840744],[None],033335,001,2024-10-10_16h28.07.971,script,2024.2.1post4,60.08795675630589,2024-10-10 16h28.22.150023 +0530,
118,0,118,[0.11848958333333333],[-0.4322916666666667],[1],[0],[0],[2.27728829998523],[None],118,0,118,0,183.86873350001406,,10,183.84541010000976,183.86873350001406,183.86873350001406,0.05501519999234006,184.87115190003533,186.12337970000226,[0.11848958333333333],[-0.4322916666666667],[1],[0],[0],[2.27728829998523],[None],033335,001,2024-10-10_16h28.07.971,script,2024.2.1post4,60.08795675630589,2024-10-10 16h28.22.150023 +0530,
119,0,119,[0.4036458333333333],[0.4505208333333333],[1],[0],[0],[2.2270827000029385],['target'],119,0,119,0,186.20553800003836,,10,186.1788490000181,186.20553800003836,186.20553800003836,0.055213999992702156,187.2213805000065,188.40659400000004,[0.4036458333333333],[0.4505208333333333],[1],[0],[0],[2.2270827000029385],['target'],033335,001,2024-10-10_16h28.07.971,script,2024.2.1post4,60.08795675630589,2024-10-10 16h28.22.150023 +0530,
120,0,120,[0.16927083333333334],[0.2682291666666667],[1],[0],[0],[0.9802507000276819],['target'],120,0,120,0,188.50156000000425,,10,188.47619529999793,188.50156000000425,188.50156000000425,0.0693520000204444,,189.4571379000554,[0.16927083333333334],[0.2682291666666667],[1],[0],[0],[0.9802507000276819],['target'],033335,001,2024-10-10_16h28.07.971,script,2024.2.1post4,60.08795675630589,2024-10-10 16h28.22.150023 +0530,
121,0,121,[0.20572916666666666],[0.4505208333333333],[1],[0],[0],[1.0615016999654472],['target'],121,0,121,0,189.53565240005264,,10,189.51190910005243,189.53565240005264,189.53565240005264,0.0545255999895744,190.53743630001554,190.57408030005172,[0.20572916666666666],[0.4505208333333333],[1],[0],[0],[1.0615016999654472],['target'],033335,001,2024-10-10_16h28.07.971,script,2024.2.1post4,60.08795675630589,2024-10-10 16h28.22.150023 +0530,
122,0,122,[-0.23958333333333334],[-0.20442708333333334],[1],[0],[0],[1.173941399960313],[None],122,0,122,0,190.65632520004874,,10,190.6329897000105,190.65632520004874,190.65632520004874,0.05863899999530986,191.67096130002756,191.8075155999977,[-0.23958333333333334],[-0.20442708333333334],[1],[0],[0],[1.173941399960313],[None],033335,001,2024-10-10_16h28.07.971,script,2024.2.1post4,60.08795675630589,2024-10-10 16h28.22.150023 +0530,
123,0,123,[-0.4114583333333333],[-0.4348958333333333],[1],[0],[0],[1.6040516999782994],['target'],123,0,123,0,191.8500288000214,,5,191.834817200026,191.8500288000214,191.8500288000214,0.027032500016503036,192.85405220004031,193.43952000001445,[-0.4114583333333333],[-0.4348958333333333],[1],[0],[0],[1.6040516999782994],['target'],033335,001,2024-10-10_16h28.07.971,script,2024.2.1post4,60.08795675630589,2024-10-10 16h28.22.150023 +0530,
124,0,124,[0.046875],[-0.3919270833333333],[1],[0],[0],[1.1955831999657676],['target'],124,0,124,0,193.51789650000865,,10,193.4943168000318,193.51789650000865,193.51789650000865,0.054607999976724386,194.52078100002836,194.69057000003522,[0.046875],[-0.3919270833333333],[1],[0],[0],[1.1955831999657676],['target'],033335,001,2024-10-10_16h28.07.971,script,2024.2.1post4,60.08795675630589,2024-10-10 16h28.22.150023 +0530,
125,0,125,[0.4192708333333333],[-0.21354166666666666],[1],[0],[0],[1.5378018000046723],['target'],125,0,125,0,194.73320670000976,,5,194.71809860004578,194.73320670000976,194.73320670000976,0.027285899966955185,195.73764570005005,196.2565362000023,[0.4192708333333333],[-0.21354166666666666],[1],[0],[0],[1.5378018000046723],['target'],033335,001,2024-10-10_16h28.07.971,script,2024.2.1post4,60.08795675630589,2024-10-10 16h28.22.150023 +0530,
126,0,126,[0.5169270833333334],[-0.171875],[1],[0],[0],[1.354511999990791],[None],126,0,126,0,196.2996840000269,,5,196.28417890000856,196.2996840000269,196.2996840000269,0.027447500033304095,197.30411810002988,197.63937180000357,[0.5169270833333334],[-0.171875],[1],[0],[0],[1.354511999990791],[None],033335,001,2024-10-10_16h28.07.971,script,2024.2.1post4,60.08795675630589,2024-10-10 16h28.22.150023 +0530,
127,0,127,[-0.03515625],[0.13932291666666666],[1],[0],[0],[0.9715835999813862],['target'],127,0,127,0,197.68248970003333,,5,197.66680200002156,197.68248970003333,197.68248970003333,0.02724959998158738,,198.639021400013,[-0.03515625],[0.13932291666666666],[1],[0],[0],[0.9715835999813862],['target'],033335,001,2024-10-10_16h28.07.971,script,2024.2.1post4,60.08795675630589,2024-10-10 16h28.22.150023 +0530,
128,0,128,[-0.14583333333333334],[0.11979166666666667],[1],[0],[0],[0.9617238000500947],['target'],128,0,128,0,198.7175428000046,,10,198.69379310001386,198.7175428000046,198.7175428000046,0.05455890001030639,,199.65613780001877,[-0.14583333333333334],[0.11979166666666667],[1],[0],[0],[0.9617238000500947],['target'],033335,001,2024-10-10_16h28.07.971,script,2024.2.1post4,60.08795675630589,2024-10-10 16h28.22.150023 +0530,
129,0,129,[-0.24609375],[-0.057291666666666664],[1],[0],[0],[0.9064732000115328],['target'],129,0,129,0,199.6986175000202,,5,199.6831231000251,199.6986175000202,199.6986175000202,0.026682499970775098,,200.59020760003477,[-0.24609375],[-0.057291666666666664],[1],[0],[0],[0.9064732000115328],['target'],033335,001,2024-10-10_16h28.07.971,script,2024.2.1post4,60.08795675630589,2024-10-10 16h28.22.150023 +0530,
130,0,130,[0.01171875],[0.2916666666666667],[1],[0],[0],[1.055294000019785],[None],130,0,130,0,200.63258470001165,,5,200.61758220003685,200.63258470001165,200.63258470001165,0.027189599990379065,201.63705110002775,201.67352120002033,[0.01171875],[0.2916666666666667],[1],[0],[0],[1.055294000019785],[None],033335,001,2024-10-10_16h28.07.971,script,2024.2.1post4,60.08795675630589,2024-10-10 16h28.22.150023 +0530,
131,0,131,[0.2643229166666667],[-0.3177083333333333],[1],[0],[0],[1.5192167999921367],['target'],131,0,131,0,201.717408800032,,5,201.7029770000372,201.717408800032,201.717408800032,0.029144999978598207,202.72055030002957,203.22275660000741,[0.2643229166666667],[-0.3177083333333333],[1],[0],[0],[1.5192167999921367],['target'],033335,001,2024-10-10_16h28.07.971,script,2024.2.1post4,60.08795675630589,2024-10-10 16h28.22.150023 +0530,
132,0,132,[0.359375],[0.2903645833333333],[1],[0],[0],[1.69011240004329],['target'],132,0,132,0,203.26486220001243,,5,203.24975490005454,203.26486220001243,203.26486220001243,0.026715199986938387,204.27045380003983,204.94049700000323,[0.359375],[0.2903645833333333],[1],[0],[0],[1.69011240004329],['target'],033335,001,2024-10-10_16h28.07.971,script,2024.2.1post4,60.08795675630589,2024-10-10 16h28.22.150023 +0530,
133,0,133,[0.049479166666666664],[0.3411458333333333],[1],[0],[0],[1.3120794999995269],['target'],133,0,133,0,205.01849950000178,,10,204.99413870001445,205.01849950000178,205.01849950000178,0.053411100001540035,206.02057350001996,206.3069814000046,[0.049479166666666664],[0.3411458333333333],[1],[0],[0],[1.3120794999995269],['target'],033335,001,2024-10-10_16h28.07.971,script,2024.2.1post4,60.08795675630589,2024-10-10 16h28.22.150023 +0530,
134,0,134,[0.0026041666666666665],[-0.15885416666666666],[1],[0],[0],[0.8557189999846742],['target'],134,0,134,0,206.35052980005275,,5,206.33413640002254,206.35052980005275,206.35052980005275,0.026877399999648333,,207.19056030001957,[0.0026041666666666665],[-0.15885416666666666],[1],[0],[0],[0.8557189999846742],['target'],033335,001,2024-10-10_16h28.07.971,script,2024.2.1post4,60.08795675630589,2024-10-10 16h28.22.150023 +0530,
135,0,135,[-0.08072916666666667],[-0.20052083333333334],[1],[0],[0],[1.120509900036268],['target'],135,0,135,0,207.23245380003937,,5,207.21747750003124,207.23245380003937,207.23245380003937,0.02672799996798858,208.23729000001913,208.33875880000414,[-0.08072916666666667],[-0.20052083333333334],[1],[0],[0],[1.120509900036268],['target'],033335,001,2024-10-10_16h28.07.971,script,2024.2.1post4,60.08795675630589,2024-10-10 16h28.22.150023 +0530,
136,0,136,[0.13932291666666666],[0.34375],[1],[0],[0],[1.3393269999651238],['target'],136,0,136,0,208.38117440004135,,5,208.36569140001666,208.38117440004135,208.38117440004135,0.026733000006061047,209.38688810000895,209.70567410002695,[0.13932291666666666],[0.34375],[1],[0],[0],[1.3393269999651238],['target'],033335,001,2024-10-10_16h28.07.971,script,2024.2.1post4,60.08795675630589,2024-10-10 16h28.22.150023 +0530,
137,0,137,[0.07942708333333333],[0.2552083333333333],[1],[0],[0],[0.7723692000145093],['target'],137,0,137,0,209.7475271000294,,5,209.73210980003932,209.7475271000294,209.7475271000294,0.026205600006505847,,210.50513890001457,[0.07942708333333333],[0.2552083333333333],[1],[0],[0],[0.7723692000145093],['target'],033335,001,2024-10-10_16h28.07.971,script,2024.2.1post4,60.08795675630589,2024-10-10 16h28.22.150023 +0530,
138,0,138,[0.08463541666666667],[0.13932291666666666],[1],[0],[0],[0.9115128999692388],['target'],138,0,138,0,210.59660010004882,,10,210.5594812000054,210.59660010004882,210.59660010004882,0.05415250000078231,,211.4715673000319,[0.08463541666666667],[0.13932291666666666],[1],[0],[0],[0.9115128999692388],['target'],033335,001,2024-10-10_16h28.07.971,script,2024.2.1post4,60.08795675630589,2024-10-10 16h28.22.150023 +0530,
139,0,139,[-0.17317708333333334],[-0.1171875],[1],[0],[0],[1.4759261999861337],['target'],139,0,139,0,211.527070000011,,5,211.51214140001684,211.527070000011,211.527070000011,0.040321000036783516,212.53639160003513,212.98874350002734,[-0.17317708333333334],[-0.1171875],[1],[0],[0],[1.4759261999861337],['target'],033335,001,2024-10-10_16h28.07.971,script,2024.2.1post4,60.08795675630589,2024-10-10 16h28.22.150023 +0530,
140,0,140,[-0.4674479166666667],[0.009114583333333334],[1],[0],[0],[1.3210643999627791],['target'],140,0,140,0,213.03244780004025,,5,213.01745080004912,213.03244780004025,213.03244780004025,0.028510099975392222,214.0364980000304,214.33915230003186,[-0.4674479166666667],[0.009114583333333334],[1],[0],[0],[1.3210643999627791],['target'],033335,001,2024-10-10_16h28.07.971,script,2024.2.1post4,60.08795675630589,2024-10-10 16h28.22.150023 +0530,
141,0,141,[0.19791666666666666],[0.005208333333333333],[1],[0],[0],[2.4802175000077114],['target'],141,0,141,0,214.41514650004683,,10,214.3920696999994,214.41514650004683,214.41514650004683,0.052724799956195056,215.4200246000546,216.8729535000166,[0.19791666666666666],[0.005208333333333333],[1],[0],[0],[2.4802175000077114],['target'],033335,001,2024-10-10_16h28.07.971,script,2024.2.1post4,60.08795675630589,2024-10-10 16h28.22.150023 +0530,
142,0,142,[0.07942708333333333],[0.1640625],[1],[0],[0],[0.8203215000103228],['target'],142,0,142,0,216.91599230002612,,5,216.90088110003853,216.91599230002612,216.91599230002612,0.027450499997939914,,217.72189030004665,[0.07942708333333333],[0.1640625],[1],[0],[0],[0.8203215000103228],['target'],033335,001,2024-10-10_16h28.07.971,script,2024.2.1post4,60.08795675630589,2024-10-10 16h28.22.150023 +0530,
143,0,143,[0.0078125],[-0.08203125],[1],[0],[0],[1.4178935999516398],['target'],143,0,143,0,217.81186700001126,,10,217.78762600000482,217.81186700001126,217.81186700001126,0.0655463999719359,218.81991650001146,219.2061808000435,[0.0078125],[-0.08203125],[1],[0],[0],[1.4178935999516398],['target'],033335,001,2024-10-10_16h28.07.971,script,2024.2.1post4,60.08795675630589,2024-10-10 16h28.22.150023 +0530,
144,0,144,[-0.13671875],[-0.20572916666666666],[1],[0],[0],[1.5418372999993153],['target'],144,0,144,0,219.26235820003785,,5,219.24696760001825,219.26235820003785,219.26235820003785,0.04047010000795126,220.26933960005408,220.7894672000548,[-0.13671875],[-0.20572916666666666],[1],[0],[0],[1.5418372999993153],['target'],033335,001,2024-10-10_16h28.07.971,script,2024.2.1post4,60.08795675630589,2024-10-10 16h28.22.150023 +0530,
145,0,145,[-0.2903645833333333],[-0.2669270833333333],[1],[0],[0],[0.871015399985481],[None],145,0,145,0,220.8319601000403,,5,220.8166945000412,220.8319601000403,220.8319601000403,0.027018000022508204,,221.6883391000447,[-0.2903645833333333],[-0.2669270833333333],[1],[0],[0],[0.871015399985481],[None],033335,001,2024-10-10_16h28.07.971,script,2024.2.1post4,60.08795675630589,2024-10-10 16h28.22.150023 +0530,
146,0,146,[0.032552083333333336],[-0.2955729166666667],[1],[0],[0],[0.9895275999442674],['target'],146,0,146,0,221.73202540003695,,5,221.7155454000458,221.73202540003695,221.73202540003695,0.027014599996618927,,222.70575230004033,[0.032552083333333336],[-0.2955729166666667],[1],[0],[0],[0.9895275999442674],['target'],033335,001,2024-10-10_16h28.07.971,script,2024.2.1post4,60.08795675630589,2024-10-10 16h28.22.150023 +0530,
147,0,147,[0.10807291666666667],[0.22395833333333334],[1],[0],[0],[1.1949180999654345],['target'],147,0,147,0,222.78326180001022,,10,222.75955340004293,222.78326180001022,222.78326180001022,0.053588900016620755,223.7858714000322,223.9550717000384,[0.10807291666666667],[0.22395833333333334],[1],[0],[0],[1.1949180999654345],['target'],033335,001,2024-10-10_16h28.07.971,script,2024.2.1post4,60.08795675630589,2024-10-10 16h28.22.150023 +0530,
148,0,148,[0.3645833333333333],[-0.3307291666666667],[1],[0],[0],[1.477822900051251],['target'],148,0,148,0,224.03340100002242,,10,224.01035670004785,224.03340100002242,224.03340100002242,0.05483439995441586,225.03602130000945,225.4889234000002,[0.3645833333333333],[-0.3307291666666667],[1],[0],[0],[1.477822900051251],['target'],033335,001,2024-10-10_16h28.07.971,script,2024.2.1post4,60.08795675630589,2024-10-10 16h28.22.150023 +0530,
149,0,149,[-0.13020833333333334],[-0.4635416666666667],[1],[0],[0],[1.211202000034973],['target'],149,0,149,0,225.56640870001866,,10,225.54341900005238,225.56640870001866,225.56640870001866,0.054209600028116256,226.56914200005122,226.75527730002068,[-0.13020833333333334],[-0.4635416666666667],[1],[0],[0],[1.211202000034973],['target'],033335,001,2024-10-10_16h28.07.971,script,2024.2.1post4,60.08795675630589,2024-10-10 16h28.22.150023 +0530,
150,0,150,[0.3619791666666667],[0.059895833333333336],[1],[0],[0],[1.565631800040137],['target'],150,0,150,0,226.8465771000483,,10,226.82280410005478,226.8465771000483,226.8465771000483,0.06726979999803007,227.85257500002626,228.38911390001886,[0.3619791666666667],[0.059895833333333336],[1],[0],[0],[1.565631800040137],['target'],033335,001,2024-10-10_16h28.07.971,script,2024.2.1post4,60.08795675630589,2024-10-10 16h28.22.150023 +0530,
151,0,151,[0.049479166666666664],[-0.14192708333333334],[1],[0],[0],[1.8606880999868736],[None],151,0,151,0,228.46822640002938,,10,228.44405470002675,228.46822640002938,228.46822640002938,0.05468249996192753,229.46914090000791,230.30532860005042,[0.049479166666666664],[-0.14192708333333334],[1],[0],[0],[1.8606880999868736],[None],033335,001,2024-10-10_16h28.07.971,script,2024.2.1post4,60.08795675630589,2024-10-10 16h28.22.150023 +0530,
152,0,152,[0.2708333333333333],[0.10286458333333333],[1],[0],[0],[1.231956000032369],['target'],152,0,152,0,230.3953294000239,,10,230.37213370000245,230.3953294000239,230.3953294000239,0.06656190002104267,231.40223720000358,231.60487620002823,[0.2708333333333333],[0.10286458333333333],[1],[0],[0],[1.231956000032369],['target'],033335,001,2024-10-10_16h28.07.971,script,2024.2.1post4,60.08795675630589,2024-10-10 16h28.22.150023 +0530,
153,0,153,[-0.2565104166666667],[-0.11848958333333333],[1],[0],[0],[1.2597647999646142],['target'],153,0,153,0,231.68591200001538,,10,231.66032970004017,231.68591200001538,231.68591200001538,0.05520049994811416,232.68534540000837,232.92062730004545,[-0.2565104166666667],[-0.11848958333333333],[1],[0],[0],[1.2597647999646142],['target'],033335,001,2024-10-10_16h28.07.971,script,2024.2.1post4,60.08795675630589,2024-10-10 16h28.22.150023 +0530,
154,0,154,[-0.3138020833333333],[0.3958333333333333],[1],[0],[0],[1.4565556999878027],[None],154,0,154,0,232.96336710004834,,5,232.9477520000073,232.96336710004834,232.96336710004834,0.026859000034164637,233.96926700003678,234.40499290003208,[-0.3138020833333333],[0.3958333333333333],[1],[0],[0],[1.4565556999878027],[None],033335,001,2024-10-10_16h28.07.971,script,2024.2.1post4,60.08795675630589,2024-10-10 16h28.22.150023 +0530,
155,0,155,[0.3580729166666667],[0.21744791666666666],[1],[0],[0],[1.150244299962651],[None],155,0,155,0,234.49294780002674,,10,234.4708806000417,234.49294780002674,234.49294780002674,0.06568589998641983,235.5024874000228,235.62178370001493,[0.3580729166666667],[0.21744791666666666],[1],[0],[0],[1.150244299962651],[None],033335,001,2024-10-10_16h28.07.971,script,2024.2.1post4,60.08795675630589,2024-10-10 16h28.22.150023 +0530,
156,0,156,[0.5],[0.4622395833333333],[1],[0],[0],[1.4227319000056013],['target'],156,0,156,0,235.6635324000381,,5,235.64849410002353,235.6635324000381,235.6635324000381,0.026468299969565123,236.66864760004682,237.07169550005347,[0.5],[0.4622395833333333],[1],[0],[0],[1.4227319000056013],['target'],033335,001,2024-10-10_16h28.07.971,script,2024.2.1post4,60.08795675630589,2024-10-10 16h28.22.150023 +0530,
157,0,157,[0.19661458333333334],[0.4752604166666667],[1],[0],[0],[0.9608619000064209],[None],157,0,157,0,237.14996210002573,,10,237.12585920002311,237.14996210002573,237.14996210002573,0.05394640000304207,,238.08729570003925,[0.19661458333333334],[0.4752604166666667],[1],[0],[0],[0.9608619000064209],[None],033335,001,2024-10-10_16h28.07.971,script,2024.2.1post4,60.08795675630589,2024-10-10 16h28.22.150023 +0530,
158,0,158,[0.3072916666666667],[0.1640625],[1],[0],[0],[1.4363090000115335],['target'],158,0,158,0,238.17552840005374,,10,238.15101450000657,238.17552840005374,238.17552840005374,0.06343979999655858,239.1858286000206,239.5879274000181,[0.3072916666666667],[0.1640625],[1],[0],[0],[1.4363090000115335],['target'],033335,001,2024-10-10_16h28.07.971,script,2024.2.1post4,60.08795675630589,2024-10-10 16h28.22.150023 +0530,
159,0,159,[0.23567708333333334],[-0.041666666666666664],[1],[0],[0],[1.3238608000101522],['target'],159,0,159,0,239.64404040004592,,5,239.61429920000955,239.64404040004592,239.64404040004592,0.026115199958439916,240.65171590005048,240.9388371000532,[0.23567708333333334],[-0.041666666666666664],[1],[0],[0],[1.3238608000101522],['target'],033335,001,2024-10-10_16h28.07.971,script,2024.2.1post4,60.08795675630589,2024-10-10 16h28.22.150023 +0530,
160,0,160,[-0.3424479166666667],[-0.11197916666666667],[1],[0],[0],[1.5482578000519425],['target'],160,0,160,0,241.02940870000748,,10,241.00537340005394,241.02940870000748,241.02940870000748,0.06634439999470487,242.03541120002046,242.5542257000343,[-0.3424479166666667],[-0.11197916666666667],[1],[0],[0],[1.5482578000519425],['target'],033335,001,2024-10-10_16h28.07.971,script,2024.2.1post4,60.08795675630589,2024-10-10 16h28.22.150023 +0530,
161,0,161,[0.4361979166666667],[0.03125],[1],[0],[0],[1.6452417999971658],['target'],161,0,161,0,242.6454231000389,,10,242.60843750002095,242.6454231000389,242.6454231000389,0.053842099965550005,243.6516693000449,244.25434540002607,[0.4361979166666667],[0.03125],[1],[0],[0],[1.6452417999971658],['target'],033335,001,2024-10-10_16h28.07.971,script,2024.2.1post4,60.08795675630589,2024-10-10 16h28.22.150023 +0530,
162,0,162,[0.1015625],[-0.040364583333333336],[1],[0],[0],[0.8469410000252537],['target'],162,0,162,0,244.32950460002758,,10,244.30705530004343,244.32950460002758,244.32950460002758,0.0524592999718152,,245.1547137000016,[0.1015625],[-0.040364583333333336],[1],[0],[0],[0.8469410000252537],['target'],033335,001,2024-10-10_16h28.07.971,script,2024.2.1post4,60.08795675630589,2024-10-10 16h28.22.150023 +0530,
163,0,163,[0.3763020833333333],[0.13671875],[1],[0],[0],[1.327362100011669],['target'],163,0,163,0,245.23306030000094,,10,245.2095893000369,245.23306030000094,245.23306030000094,0.0545877999975346,246.2348850000417,246.53757860005135,[0.3763020833333333],[0.13671875],[1],[0],[0],[1.327362100011669],['target'],033335,001,2024-10-10_16h28.07.971,script,2024.2.1post4,60.08795675630589,2024-10-10 16h28.22.150023 +0530,
164,0,164,[0.005208333333333333],[-0.4505208333333333],[1],[0],[0],[2.2917865999625064],['target'],164,0,164,0,246.5943151000538,,5,246.5788171000313,246.5943151000538,246.5943151000538,0.04098280001198873,247.60148599999957,248.87125040002866,[0.005208333333333333],[-0.4505208333333333],[1],[0],[0],[2.2917865999625064],['target'],033335,001,2024-10-10_16h28.07.971,script,2024.2.1post4,60.08795675630589,2024-10-10 16h28.22.150023 +0530,
165,0,165,[-0.2916666666666667],[-0.19140625],[1],[0],[0],[0.8628151000011712],['target'],165,0,165,0,248.96419260004768,,10,248.94027710001683,248.96419260004768,248.96419260004768,0.06884680001530796,,249.8037164999987,[-0.2916666666666667],[-0.19140625],[1],[0],[0],[0.8628151000011712],['target'],033335,001,2024-10-10_16h28.07.971,script,2024.2.1post4,60.08795675630589,2024-10-10 16h28.22.150023 +0530,
166,0,166,[0.22135416666666666],[-0.4908854166666667],[1],[0],[0],[2.8485166000318713],['target'],166,0,166,0,249.89660460001323,,10,249.87161810003454,249.89660460001323,249.89660460001323,0.06758110004011542,250.90169630001765,252.7207210000488,[0.22135416666666666],[-0.4908854166666667],[1],[0],[0],[2.8485166000318713],['target'],033335,001,2024-10-10_16h28.07.971,script,2024.2.1post4,60.08795675630589,2024-10-10 16h28.22.150023 +0530,
167,0,167,[-0.3528645833333333],[0.47265625],[1],[0],[0],[3.879460600030143],[None],167,0,167,0,252.8153465000214,,10,252.79033060005167,252.8153465000214,252.8153465000214,0.06930610002018511,253.81778920005308,256.67045680002775,[-0.3528645833333333],[0.47265625],[1],[0],[0],[3.879460600030143],[None],033335,001,2024-10-10_16h28.07.971,script,2024.2.1post4,60.08795675630589,2024-10-10 16h28.22.150023 +0530,
168,0,168,[-0.3411458333333333],[-0.4270833333333333],[1],[0],[0],[1.6729772000107914],['target'],168,0,168,0,256.71284960000776,,5,256.6971728000208,256.71284960000776,256.71284960000776,0.026481100008822978,257.7180478000082,258.3707836000249,[-0.3411458333333333],[-0.4270833333333333],[1],[0],[0],[1.6729772000107914],['target'],033335,001,2024-10-10_16h28.07.971,script,2024.2.1post4,60.08795675630589,2024-10-10 16h28.22.150023 +0530,
169,0,169,[-0.453125],[-0.3177083333333333],[1],[0],[0],[0.9587923999642953],['target'],169,0,169,0,258.4268271000474,,5,258.4111925000325,258.4268271000474,258.4268271000474,0.04028509999625385,,259.37062890001107,[-0.453125],[-0.3177083333333333],[1],[0],[0],[0.9587923999642953],['target'],033335,001,2024-10-10_16h28.07.971,script,2024.2.1post4,60.08795675630589,2024-10-10 16h28.22.150023 +0530,
170,0,170,[-0.3463541666666667],[-0.4322916666666667],[1],[0],[0],[1.4459449999849312],[None],170,0,170,0,259.44801089999964,,10,259.42421380005544,259.44801089999964,259.44801089999964,0.05339850002201274,260.4510881000315,260.87077999999747,[-0.3463541666666667],[-0.4322916666666667],[1],[0],[0],[1.4459449999849312],[None],033335,001,2024-10-10_16h28.07.971,script,2024.2.1post4,60.08795675630589,2024-10-10 16h28.22.150023 +0530,
171,0,171,[-0.1015625],[0.3997395833333333],[1],[0],[0],[1.0794829999795184],[None],171,0,171,0,260.96409560000757,,10,260.94059350003954,260.96409560000757,260.96409560000757,0.06951760000083596,261.9675640000496,262.02072230004705,[-0.1015625],[0.3997395833333333],[1],[0],[0],[1.0794829999795184],[None],033335,001,2024-10-10_16h28.07.971,script,2024.2.1post4,60.08795675630589,2024-10-10 16h28.22.150023 +0530,
172,0,172,[-0.18489583333333334],[-0.4427083333333333],[1],[0],[0],[1.422109699982684],['target'],172,0,172,0,262.06375290005235,,5,262.04763120005373,262.06375290005235,262.06375290005235,0.026706999982707202,263.0673408000148,263.47061370004667,[-0.18489583333333334],[-0.4427083333333333],[1],[0],[0],[1.422109699982684],['target'],033335,001,2024-10-10_16h28.07.971,script,2024.2.1post4,60.08795675630589,2024-10-10 16h28.22.150023 +0530,
173,0,173,[-0.22265625],[-0.46875],[1],[0],[0],[0.855078799999319],['target'],173,0,173,0,263.5135542000062,,5,263.49842140002875,263.5135542000062,263.5135542000062,0.027611500001512468,,264.3541218000464,[-0.22265625],[-0.46875],[1],[0],[0],[0.855078799999319],['target'],033335,001,2024-10-10_16h28.07.971,script,2024.2.1post4,60.08795675630589,2024-10-10 16h28.22.150023 +0530,
174,0,174,[-0.125],[-0.3723958333333333],[1],[0],[0],[0.7097722999751568],['target'],174,0,174,0,264.43253050005296,,10,264.40948810003465,264.43253050005296,264.43253050005296,0.05508699995698407,,265.1199461000506,[-0.125],[-0.3723958333333333],[1],[0],[0],[0.7097722999751568],['target'],033335,001,2024-10-10_16h28.07.971,script,2024.2.1post4,60.08795675630589,2024-10-10 16h28.22.150023 +0530,
175,0,175,[0.22526041666666666],[0.21354166666666666],[1],[0],[0],[1.2476678999955766],['target'],175,0,175,0,265.2114959000028,,10,265.18782430002466,265.2114959000028,265.2114959000028,0.06763000000501052,266.2172295000055,266.43615190003766,[0.22526041666666666],[0.21354166666666666],[1],[0],[0],[1.2476678999955766],['target'],033335,001,2024-10-10_16h28.07.971,script,2024.2.1post4,60.08795675630589,2024-10-10 16h28.22.150023 +0530,
176,0,176,[0.25],[-0.3984375],[1],[0],[0],[1.4900895000318997],['target'],176,0,176,0,266.4786261000554,,5,266.4626412000507,266.4786261000554,266.4786261000554,0.02623309998307377,267.4839571000193,267.9533835000475,[0.25],[-0.3984375],[1],[0],[0],[1.4900895000318997],['target'],033335,001,2024-10-10_16h28.07.971,script,2024.2.1post4,60.08795675630589,2024-10-10 16h28.22.150023 +0530,
177,0,177,[-0.3580729166666667],[-0.03125],[1],[0],[0],[1.1281376000260934],['target'],177,0,177,0,268.0322865000344,,10,268.00787960004527,268.0322865000344,268.0322865000344,0.0542593999998644,269.0336994000245,269.13668660004623,[-0.3580729166666667],[-0.03125],[1],[0],[0],[1.1281376000260934],['target'],033335,001,2024-10-10_16h28.07.971,script,2024.2.1post4,60.08795675630589,2024-10-10 16h28.22.150023 +0530,
178,0,178,[0.234375],[0.3776041666666667],[1],[0],[0],[1.6787592000328004],['target'],178,0,178,0,269.2144161000033,,10,269.19071220001206,269.2144161000033,269.2144161000033,0.05372919997898862,270.21716420003213,270.8703406000277,[0.234375],[0.3776041666666667],[1],[0],[0],[1.6787592000328004],['target'],033335,001,2024-10-10_16h28.07.971,script,2024.2.1post4,60.08795675630589,2024-10-10 16h28.22.150023 +0530,
179,0,179,[-0.21354166666666666],[-0.3658854166666667],[1],[0],[0],[1.8441649000160396],['target'],179,0,179,0,270.9498827000498,,10,270.9257476000348,270.9498827000498,270.9498827000498,0.055144699988886714,271.95031690003816,272.77058700000634,[-0.21354166666666666],[-0.3658854166666667],[1],[0],[0],[1.8441649000160396],['target'],033335,001,2024-10-10_16h28.07.971,script,2024.2.1post4,60.08795675630589,2024-10-10 16h28.22.150023 +0530,
180,0,180,[-0.4205729166666667],[-0.06510416666666667],[1],[0],[0],[1.3323503999854438],['target'],180,0,180,0,272.8628375999979,,10,272.83734740002546,272.8628375999979,272.8628375999979,0.06650830002035946,273.8674547999981,274.1703296000487,[-0.4205729166666667],[-0.06510416666666667],[1],[0],[0],[1.3323503999854438],['target'],033335,001,2024-10-10_16h28.07.971,script,2024.2.1post4,60.08795675630589,2024-10-10 16h28.22.150023 +0530,
181,0,181,[-0.4361979166666667],[-0.2916666666666667],[1],[0],[0],[1.5219151999917813],['target'],181,0,181,0,274.21359170001233,,5,274.1979960000026,274.21359170001233,274.21359170001233,0.027432499977294356,275.21725290000904,275.7207327000215,[-0.4361979166666667],[-0.2916666666666667],[1],[0],[0],[1.5219151999917813],['target'],033335,001,2024-10-10_16h28.07.971,script,2024.2.1post4,60.08795675630589,2024-10-10 16h28.22.150023 +0530,
182,0,182,[0.0234375],[-0.1171875],[1],[0],[0],[1.0910859000287019],['target'],182,0,182,0,275.77657520002685,,5,275.7610748000443,275.77657520002685,275.77657520002685,0.04012040002271533,276.7835565000423,276.85277240001597,[0.0234375],[-0.1171875],[1],[0],[0],[1.0910859000287019],['target'],033335,001,2024-10-10_16h28.07.971,script,2024.2.1post4,60.08795675630589,2024-10-10 16h28.22.150023 +0530,
183,0,183,[0.03125],[0.3359375],[1],[0],[0],[1.4731554000172764],['target'],183,0,183,0,276.896171600034,,5,276.87969600001816,276.896171600034,276.896171600034,0.026745099981781095,277.89993200002937,278.35352689999854,[0.03125],[0.3359375],[1],[0],[0],[1.4731554000172764],['target'],033335,001,2024-10-10_16h28.07.971,script,2024.2.1post4,60.08795675630589,2024-10-10 16h28.22.150023 +0530,
184,0,184,[-0.36328125],[0.11848958333333333],[1],[0],[0],[0.9355134000070393],['target'],184,0,184,0,278.44399490003707,,10,278.4163686000393,278.44399490003707,278.44399490003707,0.06262859998969361,,279.352520800021,[-0.36328125],[0.11848958333333333],[1],[0],[0],[0.9355134000070393],['target'],033335,001,2024-10-10_16h28.07.971,script,2024.2.1post4,60.08795675630589,2024-10-10 16h28.22.150023 +0530,
185,0,185,[-0.15885416666666666],[-0.328125],[1],[0],[0],[2.483013499993831],[None],185,0,185,0,279.443009300041,,10,279.41937010001857,279.443009300041,279.443009300041,0.06657710002036765,280.4501924000215,281.90298240003176,[-0.15885416666666666],[-0.328125],[1],[0],[0],[2.483013499993831],[None],033335,001,2024-10-10_16h28.07.971,script,2024.2.1post4,60.08795675630589,2024-10-10 16h28.22.150023 +0530,
186,0,186,[-0.15104166666666666],[0.19401041666666666],[1],[0],[0],[0.9410457999911159],[None],186,0,186,0,281.9597202000441,,5,281.9439756000065,281.9597202000441,281.9597202000441,0.04071629996178672,,282.88564800005406,[-0.15104166666666666],[0.19401041666666666],[1],[0],[0],[0.9410457999911159],[None],033335,001,2024-10-10_16h28.07.971,script,2024.2.1post4,60.08795675630589,2024-10-10 16h28.22.150023 +0530,
187,0,187,[0.018229166666666668],[-0.10416666666666667],[1],[0],[0],[0.9729554000077769],[None],187,0,187,0,282.928852800047,,5,282.91257340001175,282.928852800047,282.928852800047,0.026737900043372065,,283.88616730005015,[0.018229166666666668],[-0.10416666666666667],[1],[0],[0],[0.9729554000077769],[None],033335,001,2024-10-10_16h28.07.971,script,2024.2.1post4,60.08795675630589,2024-10-10 16h28.22.150023 +0530,
188,0,188,[-0.23177083333333334],[-0.2682291666666667],[1],[0],[0],[1.4450716999708675],[None],188,0,188,0,283.96407310001086,,10,283.94062920002034,283.96407310001086,283.96407310001086,0.054285100020933896,284.9664057000191,285.3863676000037,[-0.23177083333333334],[-0.2682291666666667],[1],[0],[0],[1.4450716999708675],[None],033335,001,2024-10-10_16h28.07.971,script,2024.2.1post4,60.08795675630589,2024-10-10 16h28.22.150023 +0530,
189,0,189,[0.12369791666666667],[0.07942708333333333],[1],[0],[0],[0.9224184000049718],['target'],189,0,189,0,285.4288071000483,,5,285.4136925000348,285.4288071000483,285.4288071000483,0.02708510000957176,,286.33677410002565,[0.12369791666666667],[0.07942708333333333],[1],[0],[0],[0.9224184000049718],['target'],033335,001,2024-10-10_16h28.07.971,script,2024.2.1post4,60.08795675630589,2024-10-10 16h28.22.150023 +0530,
190,0,190,[-0.010416666666666666],[0.3020833333333333],[1],[0],[0],[0.8714015000150539],['target'],190,0,190,0,286.3788884000387,,5,286.3637102000066,286.3788884000387,286.3788884000387,0.026743899972643703,,287.2358625000343,[-0.010416666666666666],[0.3020833333333333],[1],[0],[0],[0.8714015000150539],['target'],033335,001,2024-10-10_16h28.07.971,script,2024.2.1post4,60.08795675630589,2024-10-10 16h28.22.150023 +0530,
191,0,191,[0.30078125],[-0.15364583333333334],[1],[0],[0],[1.7441592999966815],['target'],191,0,191,0,287.318394300004,,10,287.29059430002235,287.318394300004,287.318394300004,0.054501699982210994,288.33278060000157,289.0353822000325,[0.30078125],[-0.15364583333333334],[1],[0],[0],[1.7441592999966815],['target'],033335,001,2024-10-10_16h28.07.971,script,2024.2.1post4,60.08795675630589,2024-10-10 16h28.22.150023 +0530,
192,0,192,[-0.16276041666666666],[-0.40234375],[1],[0],[0],[2.455441600002814],['target'],192,0,192,0,289.0777367000119,,5,289.0626525999978,289.0777367000119,289.0777367000119,0.026963000011164695,290.0827221000218,291.51869650004664,[-0.16276041666666666],[-0.40234375],[1],[0],[0],[2.455441600002814],['target'],033335,001,2024-10-10_16h28.07.971,script,2024.2.1post4,60.08795675630589,2024-10-10 16h28.22.150023 +0530,
193,0,193,[-0.2526041666666667],[0.2708333333333333],[1],[0],[0],[2.502761800016742],['target'],193,0,193,0,291.56511480000336,,5,291.54768060002243,291.56511480000336,291.56511480000336,0.02874310000333935,292.56633340002736,294.05113330000313,[-0.2526041666666667],[0.2708333333333333],[1],[0],[0],[2.502761800016742],['target'],033335,001,2024-10-10_16h28.07.971,script,2024.2.1post4,60.08795675630589,2024-10-10 16h28.22.150023 +0530,
194,0,194,[0.3515625],[-0.22526041666666666],[1],[0],[0],[2.989985299995169],['target'],194,0,194,0,294.09275410004193,,5,294.07785320002586,294.09275410004193,294.09275410004193,0.026518400001805276,295.0993378999992,297.06849120004335,[0.3515625],[-0.22526041666666666],[1],[0],[0],[2.989985299995169],['target'],033335,001,2024-10-10_16h28.07.971,script,2024.2.1post4,60.08795675630589,2024-10-10 16h28.22.150023 +0530,
195,0,195,[-0.4778645833333333],[-0.23046875],[1],[0],[0],[7.111410399957094],['target'],195,0,195,0,297.1482409000164,,10,297.1222800000105,297.1482409000164,297.1482409000164,0.053570899995975196,298.14909170003375,304.23421960003907,[-0.4778645833333333],[-0.23046875],[1],[0],[0],[7.111410399957094],['target'],033335,001,2024-10-10_16h28.07.971,script,2024.2.1post4,60.08795675630589,2024-10-10 16h28.22.150023 +0530,
196,0,196,[0.4869791666666667],[0.0390625],[1],[0],[0],[2.890118799987249],['target'],196,0,196,0,304.27684580005007,,5,304.2615064000129,304.27684580005007,304.27684580005007,0.027013599989004433,305.2822127000545,307.152563700045,[0.4869791666666667],[0.0390625],[1],[0],[0],[2.890118799987249],['target'],033335,001,2024-10-10_16h28.07.971,script,2024.2.1post4,60.08795675630589,2024-10-10 16h28.22.150023 +0530,
197,0,197,[-0.171875],[0.31640625],[1],[0],[0],[2.5206850999966264],['target'],197,0,197,0,307.195829000033,,5,307.17905090004206,307.195829000033,307.195829000033,0.02623919997131452,308.19885200000135,309.70037000003504,[-0.171875],[0.31640625],[1],[0],[0],[2.5206850999966264],['target'],033335,001,2024-10-10_16h28.07.971,script,2024.2.1post4,60.08795675630589,2024-10-10 16h28.22.150023 +0530,
198,0,198,[0.24609375],[0.11588541666666667],[1],[0],[0],[1.3686613999889232],['target'],198,0,198,0,309.77149770001415,,10,309.74955410003895,309.77149770001415,309.77149770001415,0.04896250000456348,310.7823573000496,311.1187794000143,[0.24609375],[0.11588541666666667],[1],[0],[0],[1.3686613999889232],['target'],033335,001,2024-10-10_16h28.07.971,script,2024.2.1post4,60.08795675630589,2024-10-10 16h28.22.150023 +0530,
199,0,199,[0.2682291666666667],[0.018229166666666668],[1],[0],[0],[2.66017870005453],['target'],199,0,199,0,311.19837540003937,,10,311.1740708000143,311.19837540003937,311.19837540003937,0.054996600025333464,312.1984092000057,313.83488310000394,[0.2682291666666667],[0.018229166666666668],[1],[0],[0],[2.66017870005453],['target'],033335,001,2024-10-10_16h28.07.971,script,2024.2.1post4,60.08795675630589,2024-10-10 16h28.22.150023 +0530,
