thisN,thisTrialN,thisRepN,mouse.x,mouse.y,mouse.leftButton,mouse.midButton,mouse.rightButton,mouse.time,mouse.clicked_name,trials.thisRepN,trials.thisTrialN,trials.thisN,trials.thisIndex,thisRow.t,notes,num_distr,trial.started,fixation.started,target.started,mouse.started,fixation.stopped,trial.stopped,trials.mouse.x,trials.mouse.y,trials.mouse.leftButton,trials.mouse.midButton,trials.mouse.rightButton,trials.mouse.time,trials.mouse.clicked_name,participant,session,date,expName,psychopyVersion,frameRate,expStart,
0,0,0,[-0.23828125],[0.44140625],[1],[0],[0],[2.601060300017707],['target'],0,0,0,0,0.06895200000144541,,5,0.04863679996924475,0.06895200000144541,0.06895200000144541,0.04824859998188913,1.0825186999863945,2.6503698999877088,[-0.23828125],[0.44140625],[1],[0],[0],[2.601060300017707],['target'],260865,001,2024-10-10_16h37.30.912,script,2024.2.1post4,60.10959180954964,2024-10-10 16h37.48.803722 +0530,
1,0,1,[0.09375],[0.055989583333333336],[1],[0],[0],[1.6401774999685585],['target'],1,0,1,0,2.7297004999709316,,10,2.7067837999784388,2.7297004999709316,2.7297004999709316,0.05619689996819943,3.7324095999938436,4.347578799992334,[0.09375],[0.055989583333333336],[1],[0],[0],[1.6401774999685585],['target'],260865,001,2024-10-10_16h37.30.912,script,2024.2.1post4,60.10959180954964,2024-10-10 16h37.48.803722 +0530,
2,0,2,[0.02734375],[0.046875],[1],[0],[0],[1.3594622999662533],['target'],2,0,2,0,4.391741900006309,,5,4.375876799982507,4.391741900006309,4.391741900006309,0.028005800035316497,5.399091099970974,5.736018800002057,[0.02734375],[0.046875],[1],[0],[0],[1.3594622999662533],['target'],260865,001,2024-10-10_16h37.30.912,script,2024.2.1post4,60.10959180954964,2024-10-10 16h37.48.803722 +0530,
3,0,3,[0.4140625],[0.32421875],[1],[0],[0],[1.8598175999941304],['target'],3,0,3,0,5.8314889000030234,,10,5.807998600008432,5.8314889000030234,5.8314889000030234,0.07177679997403175,6.83234129997436,7.668406099954154,[0.4140625],[0.32421875],[1],[0],[0],[1.8598175999941304],['target'],260865,001,2024-10-10_16h37.30.912,script,2024.2.1post4,60.10959180954964,2024-10-10 16h37.48.803722 +0530,
4,0,4,[0.4049479166666667],[-0.24088541666666666],[1],[0],[0],[2.2812440000125207],['target'],4,0,4,0,7.742119900009129,,10,7.719884299964178,7.742119900009129,7.742119900009129,0.05118799995398149,8.74882419995265,10.001940999994986,[0.4049479166666667],[-0.24088541666666666],[1],[0],[0],[2.2812440000125207],['target'],260865,001,2024-10-10_16h37.30.912,script,2024.2.1post4,60.10959180954964,2024-10-10 16h37.48.803722 +0530,
5,0,5,[-0.009114583333333334],[-0.2734375],[1],[0],[0],[1.5157523999805562],['target'],5,0,5,0,10.091829099983443,,10,10.068965999991633,10.091829099983443,10.091829099983443,0.06676409998908639,11.099381599982735,11.585495999956038,[-0.009114583333333334],[-0.2734375],[1],[0],[0],[1.5157523999805562],['target'],260865,001,2024-10-10_16h37.30.912,script,2024.2.1post4,60.10959180954964,2024-10-10 16h37.48.803722 +0530,
6,0,6,[-0.3958333333333333],[-0.16145833333333334],[1],[0],[0],[0.9707614999497309],['target'],6,0,6,0,11.628362099989317,,5,11.613589799962938,11.628362099989317,11.628362099989317,0.027889199962373823,,12.58490229997551,[-0.3958333333333333],[-0.16145833333333334],[1],[0],[0],[0.9707614999497309],['target'],260865,001,2024-10-10_16h37.30.912,script,2024.2.1post4,60.10959180954964,2024-10-10 16h37.48.803722 +0530,
7,0,7,[-0.0546875],[0.38671875],[1],[0],[0],[1.864110000024084],['target'],7,0,7,0,12.678253699967172,,10,12.653580799989868,12.678253699967172,12.678253699967172,0.0684643000131473,13.682456299953628,14.518357199965976,[-0.0546875],[0.38671875],[1],[0],[0],[1.864110000024084],['target'],260865,001,2024-10-10_16h37.30.912,script,2024.2.1post4,60.10959180954964,2024-10-10 16h37.48.803722 +0530,
8,0,8,[-0.14973958333333334],[0.3098958333333333],[1],[0],[0],[1.1145737000042573],['target'],8,0,8,0,14.591969000000972,,10,14.569606099976227,14.591969000000972,14.591969000000972,0.05097630003001541,15.59842789999675,15.684775099973194,[-0.14973958333333334],[0.3098958333333333],[1],[0],[0],[1.1145737000042573],['target'],260865,001,2024-10-10_16h37.30.912,script,2024.2.1post4,60.10959180954964,2024-10-10 16h37.48.803722 +0530,
9,0,9,[-0.07421875],[-0.20703125],[1],[0],[0],[1.1016884000273421],['target'],9,0,9,0,15.772394599975087,,10,15.749865199963097,15.772394599975087,15.772394599975087,0.06478999997489154,16.782326499989722,16.852270299976226,[-0.07421875],[-0.20703125],[1],[0],[0],[1.1016884000273421],['target'],260865,001,2024-10-10_16h37.30.912,script,2024.2.1post4,60.10959180954964,2024-10-10 16h37.48.803722 +0530,
10,0,10,[0.2513020833333333],[-0.4479166666666667],[1],[0],[0],[1.641742100007832],['target'],10,0,10,0,16.907966699975077,,5,16.89249539998127,16.907966699975077,16.907966699975077,0.03999149997252971,17.915091799979564,18.535084299976006,[0.2513020833333333],[-0.4479166666666667],[1],[0],[0],[1.641742100007832],['target'],260865,001,2024-10-10_16h37.30.912,script,2024.2.1post4,60.10959180954964,2024-10-10 16h37.48.803722 +0530,
11,0,11,[0.22395833333333334],[-0.10807291666666667],[1],[0],[0],[1.826718800002709],['target'],11,0,11,0,18.615929799969308,,10,18.59060459997272,18.615929799969308,18.615929799969308,0.05530639999778941,19.615083699987736,20.418043399986345,[0.22395833333333334],[-0.10807291666666667],[1],[0],[0],[1.826718800002709],['target'],260865,001,2024-10-10_16h37.30.912,script,2024.2.1post4,60.10959180954964,2024-10-10 16h37.48.803722 +0530,
12,0,12,[0.3919270833333333],[-0.4192708333333333],[1],[0],[0],[1.2559766999911517],['target'],12,0,12,0,20.460540400003083,,5,20.44504079996841,20.460540400003083,20.460540400003083,0.02666600001975894,21.464882400003262,21.70178719999967,[0.3919270833333333],[-0.4192708333333333],[1],[0],[0],[1.2559766999911517],['target'],260865,001,2024-10-10_16h37.30.912,script,2024.2.1post4,60.10959180954964,2024-10-10 16h37.48.803722 +0530,
13,0,13,[-0.10286458333333333],[0.4609375],[1],[0],[0],[1.6117625000188127],['target'],13,0,13,0,21.778980100003537,,10,21.75529349996941,21.778980100003537,21.778980100003537,0.053316400037147105,22.781560899980832,23.367718199966475,[-0.10286458333333333],[0.4609375],[1],[0],[0],[1.6117625000188127],['target'],260865,001,2024-10-10_16h37.30.912,script,2024.2.1post4,60.10959180954964,2024-10-10 16h37.48.803722 +0530,
14,0,14,[-0.29296875],[0.10677083333333333],[1],[0],[0],[1.2593111000023782],['target'],14,0,14,0,23.45019369997317,,10,23.424525599984918,23.45019369997317,23.45019369997317,0.056524100014939904,24.46473639999749,24.684539199981373,[-0.29296875],[0.10677083333333333],[1],[0],[0],[1.2593111000023782],['target'],260865,001,2024-10-10_16h37.30.912,script,2024.2.1post4,60.10959180954964,2024-10-10 16h37.48.803722 +0530,
15,0,15,[0.4674479166666667],[0.0546875],[1],[0],[0],[1.9693056999822147],['target'],15,0,15,0,24.768328099977225,,10,24.74378129997058,24.768328099977225,24.768328099977225,0.05886079999618232,25.781821299984585,26.713725599984173,[0.4674479166666667],[0.0546875],[1],[0],[0],[1.9693056999822147],['target'],260865,001,2024-10-10_16h37.30.912,script,2024.2.1post4,60.10959180954964,2024-10-10 16h37.48.803722 +0530,
16,0,16,[0.20833333333333334],[0.2682291666666667],[1],[0],[0],[1.2462157999980263],['target'],16,0,16,0,26.7938910999801,,10,26.76987650000956,26.7938910999801,26.7938910999801,0.055820300010964274,27.798499599972274,28.02487129997462,[0.20833333333333334],[0.2682291666666667],[1],[0],[0],[1.2462157999980263],['target'],260865,001,2024-10-10_16h37.30.912,script,2024.2.1post4,60.10959180954964,2024-10-10 16h37.48.803722 +0530,
17,0,17,[0.2877604166666667],[-0.09635416666666667],[1],[0],[0],[1.5997020999784581],['target'],17,0,17,0,28.12913109996589,,10,28.100545199995395,28.12913109996589,28.12913109996589,0.07533939997665584,29.13143319997471,29.700990199984517,[0.2877604166666667],[-0.09635416666666667],[1],[0],[0],[1.5997020999784581],['target'],260865,001,2024-10-10_16h37.30.912,script,2024.2.1post4,60.10959180954964,2024-10-10 16h37.48.803722 +0530,
18,0,18,[-0.359375],[0.0390625],[1],[0],[0],[2.167501199990511],[None],18,0,18,0,29.795922599965706,,10,29.765644699975383,29.795922599965706,29.795922599965706,0.06430409994209185,30.797667799983174,31.9337957999669,[-0.359375],[0.0390625],[1],[0],[0],[2.167501199990511],[None],260865,001,2024-10-10_16h37.30.912,script,2024.2.1post4,60.10959180954964,2024-10-10 16h37.48.803722 +0530,
19,0,19,[-0.47265625],[0.13802083333333334],[1],[0],[0],[1.3512101999949664],['target'],19,0,19,0,31.987680899968836,,5,31.96561529999599,31.987680899968836,31.987680899968836,0.031521800032351166,32.997681999986526,33.31749929999933,[-0.47265625],[0.13802083333333334],[1],[0],[0],[1.3512101999949664],['target'],260865,001,2024-10-10_16h37.30.912,script,2024.2.1post4,60.10959180954964,2024-10-10 16h37.48.803722 +0530,
20,0,20,[-0.17578125],[0.4153645833333333],[1],[0],[0],[1.3270111000165343],['target'],20,0,20,0,33.39912179997191,,10,33.37284579995321,33.39912179997191,33.39912179997191,0.05511849996400997,34.41439619997982,34.700675899977796,[-0.17578125],[0.4153645833333333],[1],[0],[0],[1.3270111000165343],['target'],260865,001,2024-10-10_16h37.30.912,script,2024.2.1post4,60.10959180954964,2024-10-10 16h37.48.803722 +0530,
21,0,21,[-0.4778645833333333],[0.3333333333333333],[1],[0],[0],[1.3594137000036426],['target'],21,0,21,0,34.75672679999843,,5,34.740879599994514,34.75672679999843,34.75672679999843,0.039962499984540045,35.76430310000433,36.10088609997183,[-0.4778645833333333],[0.3333333333333333],[1],[0],[0],[1.3594137000036426],['target'],260865,001,2024-10-10_16h37.30.912,script,2024.2.1post4,60.10959180954964,2024-10-10 16h37.48.803722 +0530,
22,0,22,[0.4830729166666667],[0.25],[1],[0],[0],[1.6583816000493243],['target'],22,0,22,0,36.18434449995402,,10,36.15735900000436,36.18434449995402,36.18434449995402,0.05623529996955767,37.19794789998559,37.81639079999877,[0.4830729166666667],[0.25],[1],[0],[0],[1.6583816000493243],['target'],260865,001,2024-10-10_16h37.30.912,script,2024.2.1post4,60.10959180954964,2024-10-10 16h37.48.803722 +0530,
23,0,23,[-0.3255208333333333],[0.3606770833333333],[1],[0],[0],[1.0588885999750346],['target'],23,0,23,0,37.87357609998435,,5,37.857606899982784,37.87357609998435,37.87357609998435,0.04092180001316592,38.880855299998075,38.91710169997532,[-0.3255208333333333],[0.3606770833333333],[1],[0],[0],[1.0588885999750346],['target'],260865,001,2024-10-10_16h37.30.912,script,2024.2.1post4,60.10959180954964,2024-10-10 16h37.48.803722 +0530,
24,0,24,[-0.46484375],[0.4166666666666667],[1],[0],[0],[1.0439502999652177],['target'],24,0,24,0,38.996306299988646,,10,38.971484799985774,38.996306299988646,38.996306299988646,0.054126599978189915,39.99745809996966,40.01605609996477,[-0.46484375],[0.4166666666666667],[1],[0],[0],[1.0439502999652177],['target'],260865,001,2024-10-10_16h37.30.912,script,2024.2.1post4,60.10959180954964,2024-10-10 16h37.48.803722 +0530,
25,0,25,[-0.3489583333333333],[0.0026041666666666665],[1],[0],[0],[1.2767405999475159],['target'],25,0,25,0,40.072490599995945,,5,40.05669939995278,40.072490599995945,40.072490599995945,0.04039460001513362,41.081247699970845,41.334117499995045,[-0.3489583333333333],[0.0026041666666666665],[1],[0],[0],[1.2767405999475159],['target'],260865,001,2024-10-10_16h37.30.912,script,2024.2.1post4,60.10959180954964,2024-10-10 16h37.48.803722 +0530,
26,0,26,[0.4869791666666667],[0.15625],[1],[0],[0],[3.5429415999678895],['target'],26,0,26,0,41.41483069997048,,10,41.38937809999334,41.41483069997048,41.41483069997048,0.055090999987442046,42.414507399953436,44.93298399995547,[0.4869791666666667],[0.15625],[1],[0],[0],[3.5429415999678895],['target'],260865,001,2024-10-10_16h37.30.912,script,2024.2.1post4,60.10959180954964,2024-10-10 16h37.48.803722 +0530,
27,0,27,[0.022135416666666668],[0.16666666666666666],[1],[0],[0],[0.9918961999937892],['target'],27,0,27,0,44.990823599975556,,5,44.97385069995653,44.990823599975556,44.990823599975556,0.04060589999426156,,45.966377099975944,[0.022135416666666668],[0.16666666666666666],[1],[0],[0],[0.9918961999937892],['target'],260865,001,2024-10-10_16h37.30.912,script,2024.2.1post4,60.10959180954964,2024-10-10 16h37.48.803722 +0530,
28,0,28,[-0.4908854166666667],[0.30859375],[1],[0],[0],[1.349439200013876],['target'],28,0,28,0,46.01888499996858,,5,45.99945929995738,46.01888499996858,46.01888499996858,0.032847800001036376,47.03038819995709,47.349674900004175,[-0.4908854166666667],[0.30859375],[1],[0],[0],[1.349439200013876],['target'],260865,001,2024-10-10_16h37.30.912,script,2024.2.1post4,60.10959180954964,2024-10-10 16h37.48.803722 +0530,
29,0,29,[-0.059895833333333336],[-0.10026041666666667],[1],[0],[0],[4.929882500029635],['target'],29,0,29,0,47.445040499966126,,10,47.418518499995116,47.445040499966126,47.445040499966126,0.0686369999893941,48.44706999999471,52.34929159999592,[-0.059895833333333336],[-0.10026041666666667],[1],[0],[0],[4.929882500029635],['target'],260865,001,2024-10-10_16h37.30.912,script,2024.2.1post4,60.10959180954964,2024-10-10 16h37.48.803722 +0530,
30,0,30,[0.026041666666666668],[0.018229166666666668],[1],[0],[0],[1.8917660000151955],['target'],30,0,30,0,52.38888629997382,,5,52.37413769995328,52.38888629997382,52.38888629997382,0.024577899952419102,53.3969492999604,54.266573400003836,[0.026041666666666668],[0.018229166666666668],[1],[0],[0],[1.8917660000151955],['target'],260865,001,2024-10-10_16h37.30.912,script,2024.2.1post4,60.10959180954964,2024-10-10 16h37.48.803722 +0530,
31,0,31,[-0.05078125],[0.4596354166666667],[1],[0],[0],[2.59754950000206],['target'],31,0,31,0,54.359716499981005,,10,54.334770099958405,54.359716499981005,54.359716499981005,0.06801449996419251,55.36375509999925,56.93297500000335,[-0.05078125],[0.4596354166666667],[1],[0],[0],[2.59754950000206],['target'],260865,001,2024-10-10_16h37.30.912,script,2024.2.1post4,60.10959180954964,2024-10-10 16h37.48.803722 +0530,
32,0,32,[-0.2265625],[-0.4153645833333333],[1],[0],[0],[1.8814325000275858],['target'],32,0,32,0,57.00533539999742,,10,56.9832916999585,57.00533539999742,57.00533539999742,0.050062700000125915,58.01329089998035,58.865351199987344,[-0.2265625],[-0.4153645833333333],[1],[0],[0],[1.8814325000275858],['target'],260865,001,2024-10-10_16h37.30.912,script,2024.2.1post4,60.10959180954964,2024-10-10 16h37.48.803722 +0530,
33,0,33,[-0.009114583333333334],[0.4622395833333333],[1],[0],[0],[1.7422128000180237],['target'],33,0,33,0,58.905998300004285,,5,58.88994709996041,58.905998300004285,58.905998300004285,0.024380600021686405,59.913116799958516,60.632833199983,[-0.009114583333333334],[0.4622395833333333],[1],[0],[0],[1.7422128000180237],['target'],260865,001,2024-10-10_16h37.30.912,script,2024.2.1post4,60.10959180954964,2024-10-10 16h37.48.803722 +0530,
34,0,34,[0.3893229166666667],[-0.029947916666666668],[1],[0],[0],[3.2641365999588743],['target'],34,0,34,0,60.7076839999645,,10,60.684352699958254,60.7076839999645,60.7076839999645,0.05133030004799366,61.71305510000093,63.94912619999377,[0.3893229166666667],[-0.029947916666666668],[1],[0],[0],[3.2641365999588743],['target'],260865,001,2024-10-10_16h37.30.912,script,2024.2.1post4,60.10959180954964,2024-10-10 16h37.48.803722 +0530,
35,0,35,[-0.16276041666666666],[0.2682291666666667],[1],[0],[0],[1.1971354999695905],['target'],35,0,35,0,64.04505600000266,,10,64.01730119995773,64.04505600000266,64.04505600000266,0.0679043999989517,65.04645929997787,65.21500490000471,[-0.16276041666666666],[0.2682291666666667],[1],[0],[0],[1.1971354999695905],['target'],260865,001,2024-10-10_16h37.30.912,script,2024.2.1post4,60.10959180954964,2024-10-10 16h37.48.803722 +0530,
36,0,36,[0.3098958333333333],[-0.1875],[1],[0],[0],[1.9513373999507166],[None],36,0,36,0,65.30314699996961,,10,65.27477999997791,65.30314699996961,65.30314699996961,0.05940679996274412,66.3133788999985,67.22936080000363,[0.3098958333333333],[-0.1875],[1],[0],[0],[1.9513373999507166],[None],260865,001,2024-10-10_16h37.30.912,script,2024.2.1post4,60.10959180954964,2024-10-10 16h37.48.803722 +0530,
37,0,37,[-0.2877604166666667],[0.2994791666666667],[1],[0],[0],[1.1364731999929063],['target'],37,0,37,0,67.32234739995329,,10,67.29432029998861,67.32234739995329,67.32234739995329,0.06460529996547848,68.3300687999581,68.43132669996703,[-0.2877604166666667],[0.2994791666666667],[1],[0],[0],[1.1364731999929063],['target'],260865,001,2024-10-10_16h37.30.912,script,2024.2.1post4,60.10959180954964,2024-10-10 16h37.48.803722 +0530,
38,0,38,[-0.10026041666666667],[0.17708333333333334],[1],[0],[0],[0.9734759000129998],['target'],38,0,38,0,68.4732119999826,,5,68.45837839995511,68.4732119999826,68.4732119999826,0.02679050003644079,,69.43240259995218,[-0.10026041666666667],[0.17708333333333334],[1],[0],[0],[0.9734759000129998],['target'],260865,001,2024-10-10_16h37.30.912,script,2024.2.1post4,60.10959180954964,2024-10-10 16h37.48.803722 +0530,
39,0,39,[0.08072916666666667],[-0.19010416666666666],[1],[0],[0],[1.188074300007429],['target'],39,0,39,0,69.47491910000099,,5,69.45944379997673,69.47491910000099,69.47491910000099,0.026936399983242154,70.47928420000244,70.64815540000563,[0.08072916666666667],[-0.19010416666666666],[1],[0],[0],[1.188074300007429],['target'],260865,001,2024-10-10_16h37.30.912,script,2024.2.1post4,60.10959180954964,2024-10-10 16h37.48.803722 +0530,
40,0,40,[0.0078125],[-0.029947916666666668],[1],[0],[0],[1.9954955000430346],['target'],40,0,40,0,70.72666190000018,,10,70.70233919995371,70.72666190000018,70.72666190000018,0.05398870003409684,71.72926689998712,72.69847889995435,[0.0078125],[-0.029947916666666668],[1],[0],[0],[1.9954955000430346],['target'],260865,001,2024-10-10_16h37.30.912,script,2024.2.1post4,60.10959180954964,2024-10-10 16h37.48.803722 +0530,
41,0,41,[-0.20182291666666666],[-0.10026041666666667],[1],[0],[0],[2.3778587999986485],['target'],41,0,41,0,72.77677999995649,,10,72.75372320000315,72.77677999995649,72.77677999995649,0.05496719997609034,73.7797317999648,75.13223869999638,[-0.20182291666666666],[-0.10026041666666667],[1],[0],[0],[2.3778587999986485],['target'],260865,001,2024-10-10_16h37.30.912,script,2024.2.1post4,60.10959180954964,2024-10-10 16h37.48.803722 +0530,
42,0,42,[0.3450520833333333],[0.028645833333333332],[1],[0],[0],[1.6396629000082612],['target'],42,0,42,0,75.17375610000454,,5,75.15872829995351,75.17375610000454,75.17375610000454,0.026227800000924617,76.17900119995466,76.7989610999939,[0.3450520833333333],[0.028645833333333332],[1],[0],[0],[1.6396629000082612],['target'],260865,001,2024-10-10_16h37.30.912,script,2024.2.1post4,60.10959180954964,2024-10-10 16h37.48.803722 +0530,
43,0,43,[0.171875],[0.45703125],[1],[0],[0],[1.4522675999905914],['target'],43,0,43,0,76.84364789997926,,5,76.82792219996918,76.84364789997926,76.84364789997926,0.028708399971947074,77.84609389997786,78.2810719999834,[0.171875],[0.45703125],[1],[0],[0],[1.4522675999905914],['target'],260865,001,2024-10-10_16h37.30.912,script,2024.2.1post4,60.10959180954964,2024-10-10 16h37.48.803722 +0530,
44,0,44,[-0.48046875],[0.3984375],[1],[0],[0],[1.8731863000430167],['target'],44,0,44,0,78.32465589995263,,5,78.30777579999994,78.32465589995263,78.32465589995263,0.026494399993680418,79.32926319999387,80.18161599995801,[-0.48046875],[0.3984375],[1],[0],[0],[1.8731863000430167],['target'],260865,001,2024-10-10_16h37.30.912,script,2024.2.1post4,60.10959180954964,2024-10-10 16h37.48.803722 +0530,
45,0,45,[0.061197916666666664],[-0.1328125],[1],[0],[0],[2.4390486999764107],[None],45,0,45,0,80.22180429997388,,5,80.20756389998132,80.22180429997388,80.22180429997388,0.025750599976163357,81.22887779999292,82.64723869995214,[0.061197916666666664],[-0.1328125],[1],[0],[0],[2.4390486999764107],[None],260865,001,2024-10-10_16h37.30.912,script,2024.2.1post4,60.10959180954964,2024-10-10 16h37.48.803722 +0530,
46,0,46,[0.4075520833333333],[0.18619791666666666],[1],[0],[0],[1.157642800011672],['target'],46,0,46,0,82.68865039997036,,5,82.67376839998178,82.68865039997036,82.68865039997036,0.026352600019890815,83.6956125999568,83.83208239998203,[0.4075520833333333],[0.18619791666666666],[1],[0],[0],[1.157642800011672],['target'],260865,001,2024-10-10_16h37.30.912,script,2024.2.1post4,60.10959180954964,2024-10-10 16h37.48.803722 +0530,
47,0,47,[0.3802083333333333],[-0.20833333333333334],[1],[0],[0],[1.1883236999856308],['target'],47,0,47,0,83.87496749998536,,5,83.85908839997137,83.87496749998536,83.87496749998536,0.026808800001163036,84.87926469999366,85.04807379998965,[0.3802083333333333],[-0.20833333333333334],[1],[0],[0],[1.1883236999856308],['target'],260865,001,2024-10-10_16h37.30.912,script,2024.2.1post4,60.10959180954964,2024-10-10 16h37.48.803722 +0530,
48,0,48,[-0.234375],[-0.26171875],[1],[0],[0],[1.089499500056263],['target'],48,0,48,0,85.08946719998494,,5,85.07389749999857,85.08946719998494,85.08946719998494,0.025605799979530275,86.09540069999639,86.16400930000236,[-0.234375],[-0.26171875],[1],[0],[0],[1.089499500056263],['target'],260865,001,2024-10-10_16h37.30.912,script,2024.2.1post4,60.10959180954964,2024-10-10 16h37.48.803722 +0530,
49,0,49,[0.07421875],[-0.390625],[1],[0],[0],[1.0397053000051528],['target'],49,0,49,0,86.20656209997833,,5,86.19102959998418,86.20656209997833,86.20656209997833,0.026817399950232357,87.21234629995888,87.23139999998966,[0.07421875],[-0.390625],[1],[0],[0],[1.0397053000051528],['target'],260865,001,2024-10-10_16h37.30.912,script,2024.2.1post4,60.10959180954964,2024-10-10 16h37.48.803722 +0530,
50,0,50,[-0.07682291666666667],[0.4388020833333333],[1],[0],[0],[1.572737500013318],['target'],50,0,50,0,87.27403529995354,,5,87.2578222999582,87.27403529995354,87.27403529995354,0.026123299961909652,88.27829190000193,88.83120709995274,[-0.07682291666666667],[0.4388020833333333],[1],[0],[0],[1.572737500013318],['target'],260865,001,2024-10-10_16h37.30.912,script,2024.2.1post4,60.10959180954964,2024-10-10 16h37.48.803722 +0530,
51,0,51,[0.052083333333333336],[-0.3919270833333333],[1],[0],[0],[1.074471400002949],[None],51,0,51,0,88.88771869998891,,5,88.87176549999276,88.88771869998891,88.88771869998891,0.04035780002595857,89.89513309998438,89.94731149997097,[0.052083333333333336],[-0.3919270833333333],[1],[0],[0],[1.074471400002949],[None],260865,001,2024-10-10_16h37.30.912,script,2024.2.1post4,60.10959180954964,2024-10-10 16h37.48.803722 +0530,
52,0,52,[-0.15494791666666666],[0.33984375],[1],[0],[0],[0.8866433999501169],['target'],52,0,52,0,89.99338090000674,,5,89.97739580000052,89.99338090000674,89.99338090000674,0.029859900008887053,,90.8647225999739,[-0.15494791666666666],[0.33984375],[1],[0],[0],[0.8866433999501169],['target'],260865,001,2024-10-10_16h37.30.912,script,2024.2.1post4,60.10959180954964,2024-10-10 16h37.48.803722 +0530,
53,0,53,[-0.5026041666666666],[-0.02734375],[1],[0],[0],[0.9281746000051498],[None],53,0,53,0,90.94334749999689,,10,90.91807590000099,90.94334749999689,90.94334749999689,0.05314789997646585,,91.84690339997178,[-0.5026041666666666],[-0.02734375],[1],[0],[0],[0.9281746000051498],[None],260865,001,2024-10-10_16h37.30.912,script,2024.2.1post4,60.10959180954964,2024-10-10 16h37.48.803722 +0530,
54,0,54,[-0.049479166666666664],[-0.3958333333333333],[1],[0],[0],[1.0893891000305302],[None],54,0,54,0,91.89004069997463,,5,91.87430440000026,91.89004069997463,91.89004069997463,0.02711650001583621,92.8950781999738,92.9643236999982,[-0.049479166666666664],[-0.3958333333333333],[1],[0],[0],[1.0893891000305302],[None],260865,001,2024-10-10_16h37.30.912,script,2024.2.1post4,60.10959180954964,2024-10-10 16h37.48.803722 +0530,
55,0,55,[-0.3671875],[0.09505208333333333],[1],[0],[0],[1.0159844000008889],['target'],55,0,55,0,93.01636059995508,,5,92.99779689998832,93.01636059995508,93.01636059995508,0.03321630001300946,94.05750289995922,94.01436999998987,[-0.3671875],[0.09505208333333333],[1],[0],[0],[1.0159844000008889],['target'],260865,001,2024-10-10_16h37.30.912,script,2024.2.1post4,60.10959180954964,2024-10-10 16h37.48.803722 +0530,
56,0,56,[-0.4192708333333333],[0.053385416666666664],[1],[0],[0],[0.8056874999892898],['target'],56,0,56,0,94.05750289995922,,5,94.04145489999792,94.05750289995922,94.05750289995922,0.02677260001655668,,94.84768489998532,[-0.4192708333333333],[0.053385416666666664],[1],[0],[0],[0.8056874999892898],['target'],260865,001,2024-10-10_16h37.30.912,script,2024.2.1post4,60.10959180954964,2024-10-10 16h37.48.803722 +0530,
57,0,57,[-0.20963541666666666],[0.3307291666666667],[1],[0],[0],[1.0548999999882653],['target'],57,0,57,0,94.8909113999689,,5,94.8752956999815,94.8909113999689,94.8909113999689,0.02732510003261268,95.89512229996035,95.93072449997999,[-0.20963541666666666],[0.3307291666666667],[1],[0],[0],[1.0548999999882653],['target'],260865,001,2024-10-10_16h37.30.912,script,2024.2.1post4,60.10959180954964,2024-10-10 16h37.48.803722 +0530,
58,0,58,[0.4375],[-0.005208333333333333],[1],[0],[0],[1.7522917999885976],['target'],58,0,58,0,95.97674700000789,,5,95.96130859997356,95.97674700000789,95.97674700000789,0.030346699990332127,96.97868939995533,97.71425109996926,[0.4375],[-0.005208333333333333],[1],[0],[0],[1.7522917999885976],['target'],260865,001,2024-10-10_16h37.30.912,script,2024.2.1post4,60.10959180954964,2024-10-10 16h37.48.803722 +0530,
59,0,59,[0.21484375],[-0.4375],[1],[0],[0],[1.1261050999746658],['target'],59,0,59,0,97.77097869996214,,5,97.75404539995361,97.77097869996214,97.77097869996214,0.039583500009030104,98.7781056999811,98.88076199998613,[0.21484375],[-0.4375],[1],[0],[0],[1.1261050999746658],['target'],260865,001,2024-10-10_16h37.30.912,script,2024.2.1post4,60.10959180954964,2024-10-10 16h37.48.803722 +0530,
60,0,60,[-0.2578125],[0.33203125],[1],[0],[0],[1.4292567999800667],['target'],60,0,60,0,98.96443529997487,,10,98.93484729999909,98.96443529997487,98.96443529997487,0.05389540002215654,99.97811749996617,100.36473460000707,[-0.2578125],[0.33203125],[1],[0],[0],[1.4292567999800667],['target'],260865,001,2024-10-10_16h37.30.912,script,2024.2.1post4,60.10959180954964,2024-10-10 16h37.48.803722 +0530,
61,0,61,[-0.07161458333333333],[-0.4440104166666667],[1],[0],[0],[1.9046124999877065],['target'],61,0,61,0,100.40740349999396,,5,100.39203099999577,100.40740349999396,100.40740349999396,0.02706300001591444,101.41159249999328,102.29737349995412,[-0.07161458333333333],[-0.4440104166666667],[1],[0],[0],[1.9046124999877065],['target'],260865,001,2024-10-10_16h37.30.912,script,2024.2.1post4,60.10959180954964,2024-10-10 16h37.48.803722 +0530,
62,0,62,[-0.22526041666666666],[0.048177083333333336],[1],[0],[0],[1.1793884999933653],['target'],62,0,62,0,102.37543159996858,,10,102.35130069998559,102.37543159996858,102.37543159996858,0.053728100028820336,103.37776090000989,103.53130029997556,[-0.22526041666666666],[0.048177083333333336],[1],[0],[0],[1.1793884999933653],['target'],260865,001,2024-10-10_16h37.30.912,script,2024.2.1post4,60.10959180954964,2024-10-10 16h37.48.803722 +0530,
63,0,63,[-0.10807291666666667],[0.23307291666666666],[1],[0],[0],[1.4968921999679878],['target'],63,0,63,0,103.607798299985,,10,103.58350379997864,103.607798299985,103.607798299985,0.05190789996413514,104.6111984999734,105.08094469999196,[-0.10807291666666667],[0.23307291666666666],[1],[0],[0],[1.4968921999679878],['target'],260865,001,2024-10-10_16h37.30.912,script,2024.2.1post4,60.10959180954964,2024-10-10 16h37.48.803722 +0530,
64,0,64,[-0.3671875],[-0.3541666666666667],[1],[0],[0],[1.3396735999849625],['target'],64,0,64,0,105.1223922999925,,5,105.10601329995552,105.1223922999925,105.1223922999925,0.024829500005580485,106.12757859996054,106.44631839997601,[-0.3671875],[-0.3541666666666667],[1],[0],[0],[1.3396735999849625],['target'],260865,001,2024-10-10_16h37.30.912,script,2024.2.1post4,60.10959180954964,2024-10-10 16h37.48.803722 +0530,
65,0,65,[-0.4596354166666667],[-0.14583333333333334],[1],[0],[0],[0.9287133999750949],['target'],65,0,65,0,106.52915439999197,,10,106.5008040999528,106.52915439999197,106.52915439999197,0.05428699997719377,,107.43016539997188,[-0.4596354166666667],[-0.14583333333333334],[1],[0],[0],[0.9287133999750949],['target'],260865,001,2024-10-10_16h37.30.912,script,2024.2.1post4,60.10959180954964,2024-10-10 16h37.48.803722 +0530,
66,0,66,[-0.50390625],[0.4700520833333333],[1],[0],[0],[3.839945199957583],['target'],66,0,66,0,107.47211199998856,,5,107.45680939999875,107.47211199998856,107.47211199998856,0.026389799953904003,108.47875899996143,111.29735740000615,[-0.50390625],[0.4700520833333333],[1],[0],[0],[3.839945199957583],['target'],260865,001,2024-10-10_16h37.30.912,script,2024.2.1post4,60.10959180954964,2024-10-10 16h37.48.803722 +0530,
67,0,67,[-0.1328125],[0.055989583333333336],[1],[0],[0],[1.5716123000020161],[None],67,0,67,0,111.33999389997916,,5,111.3245481000049,111.33999389997916,111.33999389997916,0.026987900026142597,112.34415149997221,112.89675129996613,[-0.1328125],[0.055989583333333336],[1],[0],[0],[1.5716123000020161],[None],260865,001,2024-10-10_16h37.30.912,script,2024.2.1post4,60.10959180954964,2024-10-10 16h37.48.803722 +0530,
68,0,68,[-0.4752604166666667],[0.11588541666666667],[1],[0],[0],[1.0596250999951735],['target'],68,0,68,0,112.97654459998012,,10,112.95321569999214,112.97654459998012,112.97654459998012,0.05618509999476373,113.97721209999872,114.01370919996407,[-0.4752604166666667],[0.11588541666666667],[1],[0],[0],[1.0596250999951735],['target'],260865,001,2024-10-10_16h37.30.912,script,2024.2.1post4,60.10959180954964,2024-10-10 16h37.48.803722 +0530,
69,0,69,[0.016927083333333332],[0.3463541666666667],[1],[0],[0],[1.039257499971427],['target'],69,0,69,0,114.05634199996712,,5,114.04069569997955,114.05634199996712,114.05634199996712,0.026785599999129772,115.06100819999119,115.08056689996738,[0.016927083333333332],[0.3463541666666667],[1],[0],[0],[1.039257499971427],['target'],260865,001,2024-10-10_16h37.30.912,script,2024.2.1post4,60.10959180954964,2024-10-10 16h37.48.803722 +0530,
70,0,70,[0.4739583333333333],[-0.171875],[1],[0],[0],[2.662199500016868],['target'],70,0,70,0,115.15878579998389,,10,115.13415259995963,115.15878579998389,115.15878579998389,0.053384400031063706,116.1610909999581,117.79696219996549,[0.4739583333333333],[-0.171875],[1],[0],[0],[2.662199500016868],['target'],260865,001,2024-10-10_16h37.30.912,script,2024.2.1post4,60.10959180954964,2024-10-10 16h37.48.803722 +0530,
71,0,71,[0.3489583333333333],[0.36328125],[1],[0],[0],[1.8406123000313528],[None],71,0,71,0,117.83848849998321,,5,117.82299700001022,117.83848849998321,117.83848849998321,0.025753900001291186,118.84428159997333,119.66426279995358,[0.3489583333333333],[0.36328125],[1],[0],[0],[1.8406123000313528],[None],260865,001,2024-10-10_16h37.30.912,script,2024.2.1post4,60.10959180954964,2024-10-10 16h37.48.803722 +0530,
72,0,72,[0.19270833333333334],[-0.18359375],[1],[0],[0],[1.2880776000092737],[None],72,0,72,0,119.7057432999718,,5,119.69098749995464,119.7057432999718,119.7057432999718,0.02653260005172342,120.71028309996473,120.97972529998515,[0.19270833333333334],[-0.18359375],[1],[0],[0],[1.2880776000092737],[None],260865,001,2024-10-10_16h37.30.912,script,2024.2.1post4,60.10959180954964,2024-10-10 16h37.48.803722 +0530,
73,0,73,[0.2825520833333333],[-0.2643229166666667],[1],[0],[0],[1.427038099966012],['target'],73,0,73,0,121.06011059996672,,10,121.03516919998219,121.06011059996672,121.06011059996672,0.05528720002621412,122.06025370000862,122.46295289997943,[0.2825520833333333],[-0.2643229166666667],[1],[0],[0],[1.427038099966012],['target'],260865,001,2024-10-10_16h37.30.912,script,2024.2.1post4,60.10959180954964,2024-10-10 16h37.48.803722 +0530,
74,0,74,[0.15885416666666666],[-0.13151041666666666],[1],[0],[0],[3.6889910000027157],['target'],74,0,74,0,122.50541719998,,5,122.49028309999267,122.50541719998,122.50541719998,0.026974500040523708,123.51007779996144,126.17993519996526,[0.15885416666666666],[-0.13151041666666666],[1],[0],[0],[3.6889910000027157],['target'],260865,001,2024-10-10_16h37.30.912,script,2024.2.1post4,60.10959180954964,2024-10-10 16h37.48.803722 +0530,
75,0,75,[-0.21354166666666666],[0.010416666666666666],[1],[0],[0],[1.1216432000510395],['target'],75,0,75,0,126.22172589995898,,5,126.20619739999529,126.22172589995898,126.22172589995898,0.02606709999963641,127.22696749999886,127.3284610999981,[-0.21354166666666666],[0.010416666666666666],[1],[0],[0],[1.1216432000510395],['target'],260865,001,2024-10-10_16h37.30.912,script,2024.2.1post4,60.10959180954964,2024-10-10 16h37.48.803722 +0530,
76,0,76,[0.10286458333333333],[-0.171875],[1],[0],[0],[1.6464369999594055],['target'],76,0,76,0,127.40685480000684,,10,127.38330689998111,127.40685480000684,127.40685480000684,0.05460860003950074,128.4102331000031,129.03039239998907,[0.10286458333333333],[-0.171875],[1],[0],[0],[1.6464369999594055],['target'],260865,001,2024-10-10_16h37.30.912,script,2024.2.1post4,60.10959180954964,2024-10-10 16h37.48.803722 +0530,
77,0,77,[0.01953125],[-0.029947916666666668],[1],[0],[0],[1.8287294999463484],['target'],77,0,77,0,129.1089176000096,,10,129.08462259999942,129.1089176000096,129.1089176000096,0.05398959998274222,130.10985219996655,130.91405899997335,[0.01953125],[-0.029947916666666668],[1],[0],[0],[1.8287294999463484],['target'],260865,001,2024-10-10_16h37.30.912,script,2024.2.1post4,60.10959180954964,2024-10-10 16h37.48.803722 +0530,
78,0,78,[-0.061197916666666664],[-0.14322916666666666],[1],[0],[0],[1.403567400004249],['target'],78,0,78,0,130.96025439997902,,5,130.9419541999814,130.96025439997902,130.96025439997902,0.027621300017926842,131.95984520000638,132.3462000999716,[-0.061197916666666664],[-0.14322916666666666],[1],[0],[0],[1.403567400004249],['target'],260865,001,2024-10-10_16h37.30.912,script,2024.2.1post4,60.10959180954964,2024-10-10 16h37.48.803722 +0530,
79,0,79,[-0.044270833333333336],[0.39453125],[1],[0],[0],[1.6127419999684207],['target'],79,0,79,0,132.4225354999653,,10,132.39982930000406,132.4225354999653,132.4225354999653,0.05341039999620989,133.426369599998,134.01326759997755,[-0.044270833333333336],[0.39453125],[1],[0],[0],[1.6127419999684207],['target'],260865,001,2024-10-10_16h37.30.912,script,2024.2.1post4,60.10959180954964,2024-10-10 16h37.48.803722 +0530,
80,0,80,[0.27734375],[-0.29296875],[1],[0],[0],[2.661528599972371],['target'],80,0,80,0,134.09168289997615,,10,134.06709229998523,134.09168289997615,134.09168289997615,0.053569499985314906,135.09329729998717,136.7293515999918,[0.27734375],[-0.29296875],[1],[0],[0],[2.661528599972371],['target'],260865,001,2024-10-10_16h37.30.912,script,2024.2.1post4,60.10959180954964,2024-10-10 16h37.48.803722 +0530,
81,0,81,[-0.50390625],[0.31640625],[1],[0],[0],[2.3119500000029802],['target'],81,0,81,0,136.80779329995858,,10,136.78270409995457,136.80779329995858,136.80779329995858,0.05304580001393333,137.80985069996677,139.09532209997997,[-0.50390625],[0.31640625],[1],[0],[0],[2.3119500000029802],['target'],260865,001,2024-10-10_16h37.30.912,script,2024.2.1post4,60.10959180954964,2024-10-10 16h37.48.803722 +0530,
82,0,82,[-0.10677083333333333],[0.2942708333333333],[1],[0],[0],[1.0395118999877013],[None],82,0,82,0,139.1367339999997,,5,139.12164480000501,139.1367339999997,139.1367339999997,0.02604360005352646,140.14267819997622,140.16168909997214,[-0.10677083333333333],[0.2942708333333333],[1],[0],[0],[1.0395118999877013],[None],260865,001,2024-10-10_16h37.30.912,script,2024.2.1post4,60.10959180954964,2024-10-10 16h37.48.803722 +0530,
83,0,83,[-0.26953125],[0.029947916666666668],[1],[0],[0],[1.2068394999951124],['target'],83,0,83,0,140.20428010000614,,5,140.18820169998799,140.20428010000614,140.20428010000614,0.026300800032913685,141.20910509995883,141.39562879997538,[-0.26953125],[0.029947916666666668],[1],[0],[0],[1.2068394999951124],['target'],260865,001,2024-10-10_16h37.30.912,script,2024.2.1post4,60.10959180954964,2024-10-10 16h37.48.803722 +0530,
84,0,84,[0.4791666666666667],[-0.4427083333333333],[1],[0],[0],[1.3460271999938414],['target'],84,0,84,0,141.47330579999834,,10,141.44884559995262,141.47330579999834,141.47330579999834,0.0529938000254333,142.47619969997322,142.7954361999873,[0.4791666666666667],[-0.4427083333333333],[1],[0],[0],[1.3460271999938414],['target'],260865,001,2024-10-10_16h37.30.912,script,2024.2.1post4,60.10959180954964,2024-10-10 16h37.48.803722 +0530,
85,0,85,[-0.057291666666666664],[0.0546875],[1],[0],[0],[1.454854500014335],['target'],85,0,85,0,142.83847339998465,,5,142.8231342000072,142.83847339998465,142.83847339998465,0.027376600017305464,143.84237759996904,144.27869010000722,[-0.057291666666666664],[0.0546875],[1],[0],[0],[1.454854500014335],['target'],260865,001,2024-10-10_16h37.30.912,script,2024.2.1post4,60.10959180954964,2024-10-10 16h37.48.803722 +0530,
86,0,86,[0.2513020833333333],[0.3880208333333333],[1],[0],[0],[1.975780900043901],['target'],86,0,86,0,144.35913959995378,,10,144.33554000000004,144.35913959995378,144.35913959995378,0.056624499964527786,145.35914650000632,146.31193949998124,[0.2513020833333333],[0.3880208333333333],[1],[0],[0],[1.975780900043901],['target'],260865,001,2024-10-10_16h37.30.912,script,2024.2.1post4,60.10959180954964,2024-10-10 16h37.48.803722 +0530,
87,0,87,[-0.17708333333333334],[-0.41796875],[1],[0],[0],[1.307067800022196],['target'],87,0,87,0,146.39414539997233,,10,146.37129290000303,146.39414539997233,146.39414539997233,0.05905069998698309,147.4089313999866,147.6790393999545,[-0.17708333333333334],[-0.41796875],[1],[0],[0],[1.307067800022196],['target'],260865,001,2024-10-10_16h37.30.912,script,2024.2.1post4,60.10959180954964,2024-10-10 16h37.48.803722 +0530,
88,0,88,[-0.23828125],[0.15885416666666666],[1],[0],[0],[2.0117697000387125],['target'],88,0,88,0,147.75759289995767,,10,147.73344260000158,147.75759289995767,147.75759289995767,0.053922299994155765,148.75875079998514,149.74586999998428,[-0.23828125],[0.15885416666666666],[1],[0],[0],[2.0117697000387125],['target'],260865,001,2024-10-10_16h37.30.912,script,2024.2.1post4,60.10959180954964,2024-10-10 16h37.48.803722 +0530,
89,0,89,[-0.45703125],[0.4427083333333333],[1],[0],[0],[2.259979599970393],['target'],89,0,89,0,149.82704449997982,,10,149.80065739998827,149.82704449997982,149.82704449997982,0.05453060002764687,150.8421779999626,152.06169369997224,[-0.45703125],[0.4427083333333333],[1],[0],[0],[2.259979599970393],['target'],260865,001,2024-10-10_16h37.30.912,script,2024.2.1post4,60.10959180954964,2024-10-10 16h37.48.803722 +0530,
90,0,90,[-0.296875],[0.4270833333333333],[1],[0],[0],[1.262584500014782],['target'],90,0,90,0,152.14175989996875,,10,152.11558799998602,152.14175989996875,152.14175989996875,0.0536131999688223,153.1421211999841,153.3787866999628,[-0.296875],[0.4270833333333333],[1],[0],[0],[1.262584500014782],['target'],260865,001,2024-10-10_16h37.30.912,script,2024.2.1post4,60.10959180954964,2024-10-10 16h37.48.803722 +0530,
91,0,91,[0.05078125],[0.2578125],[1],[0],[0],[1.0457649999880232],['target'],91,0,91,0,153.45600859995466,,10,153.43234169995412,153.45600859995466,153.45600859995466,0.05326770001556724,154.45915439998498,154.47878329997184,[0.05078125],[0.2578125],[1],[0],[0],[1.0457649999880232],['target'],260865,001,2024-10-10_16h37.30.912,script,2024.2.1post4,60.10959180954964,2024-10-10 16h37.48.803722 +0530,
92,0,92,[-0.026041666666666668],[-0.4765625],[1],[0],[0],[2.4945891000097618],['target'],92,0,92,0,154.55742759996792,,10,154.53223579999758,154.55742759996792,154.55742759996792,0.05316000001039356,155.55851879995316,157.0274598999531,[-0.026041666666666668],[-0.4765625],[1],[0],[0],[2.4945891000097618],['target'],260865,001,2024-10-10_16h37.30.912,script,2024.2.1post4,60.10959180954964,2024-10-10 16h37.48.803722 +0530,
93,0,93,[-0.38671875],[0.4973958333333333],[1],[0],[0],[2.387964700057637],['target'],93,0,93,0,157.07077569997637,,5,157.05629429995315,157.07077569997637,157.07077569997637,0.02858450001804158,158.07526559999678,159.4450332999695,[-0.38671875],[0.4973958333333333],[1],[0],[0],[2.387964700057637],['target'],260865,001,2024-10-10_16h37.30.912,script,2024.2.1post4,60.10959180954964,2024-10-10 16h37.48.803722 +0530,
94,0,94,[0.37890625],[-0.06640625],[1],[0],[0],[2.4759449000121094],['target'],94,0,94,0,159.5248006999609,,10,159.50065030000405,159.5248006999609,159.5248006999609,0.055429200001526624,160.52483829995617,161.9771492999862,[0.37890625],[-0.06640625],[1],[0],[0],[2.4759449000121094],['target'],260865,001,2024-10-10_16h37.30.912,script,2024.2.1post4,60.10959180954964,2024-10-10 16h37.48.803722 +0530,
95,0,95,[0.23828125],[-0.24609375],[1],[0],[0],[1.7734974999912083],['target'],95,0,95,0,162.06218660000013,,10,162.03633639996406,162.06218660000013,162.06218660000013,0.0588819999829866,163.07469390000915,163.81059479998657,[0.23828125],[-0.24609375],[1],[0],[0],[1.7734974999912083],['target'],260865,001,2024-10-10_16h37.30.912,script,2024.2.1post4,60.10959180954964,2024-10-10 16h37.48.803722 +0530,
96,0,96,[-0.1796875],[-0.11979166666666667],[1],[0],[0],[2.205026099982206],[None],96,0,96,0,163.85454579995712,,5,163.8393407999538,163.85454579995712,163.85454579995712,0.028441299975384027,164.85846650000894,166.04490509995958,[-0.1796875],[-0.11979166666666667],[1],[0],[0],[2.205026099982206],[None],260865,001,2024-10-10_16h37.30.912,script,2024.2.1post4,60.10959180954964,2024-10-10 16h37.48.803722 +0530,
97,0,97,[0.33984375],[-0.08854166666666667],[1],[0],[0],[1.554283100005705],['target'],97,0,97,0,166.08751489996212,,5,166.07216330000665,166.08751489996212,166.08751489996212,0.027002999966498464,167.09126670000842,167.62700709997443,[0.33984375],[-0.08854166666666667],[1],[0],[0],[1.554283100005705],['target'],260865,001,2024-10-10_16h37.30.912,script,2024.2.1post4,60.10959180954964,2024-10-10 16h37.48.803722 +0530,
98,0,98,[-0.4596354166666667],[-0.1953125],[1],[0],[0],[1.0756625999929383],['target'],98,0,98,0,167.70648289995734,,10,167.6842045999947,167.70648289995734,167.70648289995734,0.05697849998250604,168.70815709995804,168.76049969997257,[-0.4596354166666667],[-0.1953125],[1],[0],[0],[1.0756625999929383],['target'],260865,001,2024-10-10_16h37.30.912,script,2024.2.1post4,60.10959180954964,2024-10-10 16h37.48.803722 +0530,
99,0,99,[-0.33984375],[0.19270833333333334],[1],[0],[0],[1.2719909999868833],['target'],99,0,99,0,168.80289019999327,,5,168.78738599998178,168.80289019999327,168.80289019999327,0.02658289996907115,169.80779619998066,170.06030019995524,[-0.33984375],[0.19270833333333334],[1],[0],[0],[1.2719909999868833],['target'],260865,001,2024-10-10_16h37.30.912,script,2024.2.1post4,60.10959180954964,2024-10-10 16h37.48.803722 +0530,
100,0,100,[-0.010416666666666666],[-0.26171875],[1],[0],[0],[1.1991670000134036],['target'],100,0,100,0,170.1534738999908,,10,170.12703749997308,170.1534738999908,170.1534738999908,0.06647600000724196,171.15803689998575,171.32686529995408,[-0.010416666666666666],[-0.26171875],[1],[0],[0],[1.1991670000134036],['target'],260865,001,2024-10-10_16h37.30.912,script,2024.2.1post4,60.10959180954964,2024-10-10 16h37.48.803722 +0530,
101,0,101,[0.17317708333333334],[-0.3541666666666667],[1],[0],[0],[2.5286592999473214],['target'],101,0,101,0,171.40572330000577,,10,171.38224050001008,171.40572330000577,171.40572330000577,0.05512040003668517,172.40788419998717,173.91157860000385,[0.17317708333333334],[-0.3541666666666667],[1],[0],[0],[2.5286592999473214],['target'],260865,001,2024-10-10_16h37.30.912,script,2024.2.1post4,60.10959180954964,2024-10-10 16h37.48.803722 +0530,
102,0,102,[0.06380208333333333],[0.16536458333333334],[1],[0],[0],[1.2542324000387453],['target'],102,0,102,0,173.99536499998067,,10,173.97204059996875,173.99536499998067,173.99536499998067,0.06021419999888167,175.00780979997944,175.22681610001018,[0.06380208333333333],[0.16536458333333334],[1],[0],[0],[1.2542324000387453],['target'],260865,001,2024-10-10_16h37.30.912,script,2024.2.1post4,60.10959180954964,2024-10-10 16h37.48.803722 +0530,
103,0,103,[0.032552083333333336],[0.06770833333333333],[1],[0],[0],[1.1958436000277288],['target'],103,0,103,0,175.30382159998408,,10,175.28054949996294,175.30382159998408,175.30382159998408,0.0534652000060305,176.30772049998632,176.47701410000445,[0.032552083333333336],[0.06770833333333333],[1],[0],[0],[1.1958436000277288],['target'],260865,001,2024-10-10_16h37.30.912,script,2024.2.1post4,60.10959180954964,2024-10-10 16h37.48.803722 +0530,
104,0,104,[0.020833333333333332],[0.3567708333333333],[1],[0],[0],[0.9538532999577001],['target'],104,0,104,0,176.5206465999945,,5,176.5053449999541,176.5206465999945,176.5206465999945,0.028080399963073432,,177.4598621999612,[0.020833333333333332],[0.3567708333333333],[1],[0],[0],[0.9538532999577001],['target'],260865,001,2024-10-10_16h37.30.912,script,2024.2.1post4,60.10959180954964,2024-10-10 16h37.48.803722 +0530,
105,0,105,[-0.4114583333333333],[-0.23177083333333334],[1],[0],[0],[1.2407611000235192],['target'],105,0,105,0,177.51857129996642,,5,177.50139409996336,177.51857129996642,177.51857129996642,0.04134300001896918,178.52457289997255,178.74284869997064,[-0.4114583333333333],[-0.23177083333333334],[1],[0],[0],[1.2407611000235192],['target'],260865,001,2024-10-10_16h37.30.912,script,2024.2.1post4,60.10959180954964,2024-10-10 16h37.48.803722 +0530,
106,0,106,[-0.01953125],[0.23828125],[1],[0],[0],[0.9965355999884196],['target'],106,0,106,0,178.81952089996776,,10,178.79701459995704,178.81952089996776,178.81952089996776,0.05397040001116693,,179.79419009998674,[-0.01953125],[0.23828125],[1],[0],[0],[0.9965355999884196],['target'],260865,001,2024-10-10_16h37.30.912,script,2024.2.1post4,60.10959180954964,2024-10-10 16h37.48.803722 +0530,
107,0,107,[-0.24739583333333334],[-0.45703125],[1],[0],[0],[1.293112299987115],['target'],107,0,107,0,179.87542719999328,,10,179.8503226999892,179.87542719999328,179.87542719999328,0.05586809996748343,180.89072389999637,181.14407189999474,[-0.24739583333333334],[-0.45703125],[1],[0],[0],[1.293112299987115],['target'],260865,001,2024-10-10_16h37.30.912,script,2024.2.1post4,60.10959180954964,2024-10-10 16h37.48.803722 +0530,
108,0,108,[-0.44921875],[-0.3997395833333333],[1],[0],[0],[1.030073000001721],['target'],108,0,108,0,181.2358385999687,,10,181.2121763000032,181.2358385999687,181.2358385999687,0.06785260001197457,182.24072609998984,182.24291559995618,[-0.44921875],[-0.3997395833333333],[1],[0],[0],[1.030073000001721],['target'],260865,001,2024-10-10_16h37.30.912,script,2024.2.1post4,60.10959180954964,2024-10-10 16h37.48.803722 +0530,
109,0,109,[0.022135416666666668],[-0.1171875],[1],[0],[0],[1.8613665999728255],['target'],109,0,109,0,182.32289319997653,,10,182.2979389000102,182.32289319997653,182.32289319997653,0.05477300001075491,183.32395109999925,184.1600189000019,[0.022135416666666668],[-0.1171875],[1],[0],[0],[1.8613665999728255],['target'],260865,001,2024-10-10_16h37.30.912,script,2024.2.1post4,60.10959180954964,2024-10-10 16h37.48.803722 +0530,
110,0,110,[0.12760416666666666],[-0.048177083333333336],[1],[0],[0],[1.1255455000209622],['target'],110,0,110,0,184.24158239999088,,10,184.2170348999789,184.24158239999088,184.24158239999088,0.056740199972409755,185.240956499998,185.34325320000062,[0.12760416666666666],[-0.048177083333333336],[1],[0],[0],[1.1255455000209622],['target'],260865,001,2024-10-10_16h37.30.912,script,2024.2.1post4,60.10959180954964,2024-10-10 16h37.48.803722 +0530,
111,0,111,[-0.057291666666666664],[0.11979166666666667],[1],[0],[0],[1.0229245999944396],['target'],111,0,111,0,185.4037762999651,,5,185.3865166999749,185.4037762999651,185.4037762999651,0.04301740002119914,186.4073148999596,186.41009610000765,[-0.057291666666666664],[0.11979166666666667],[1],[0],[0],[1.0229245999944396],['target'],260865,001,2024-10-10_16h37.30.912,script,2024.2.1post4,60.10959180954964,2024-10-10 16h37.48.803722 +0530,
112,0,112,[0.08203125],[-0.20833333333333334],[1],[0],[0],[0.8089858999592252],['target'],112,0,112,0,186.46698199998355,,5,186.450669199985,186.46698199998355,186.46698199998355,0.040352099982555956,,187.26028369995765,[0.08203125],[-0.20833333333333334],[1],[0],[0],[0.8089858999592252],['target'],260865,001,2024-10-10_16h37.30.912,script,2024.2.1post4,60.10959180954964,2024-10-10 16h37.48.803722 +0530,
113,0,113,[0.0234375],[-0.2903645833333333],[1],[0],[0],[0.758423599996604],['target'],113,0,113,0,187.31668160000117,,5,187.3001460999949,187.31668160000117,187.31668160000117,0.03968180000083521,,188.05940450000344,[0.0234375],[-0.2903645833333333],[1],[0],[0],[0.758423599996604],['target'],260865,001,2024-10-10_16h37.30.912,script,2024.2.1post4,60.10959180954964,2024-10-10 16h37.48.803722 +0530,
114,0,114,[-0.30078125],[-0.19791666666666666],[1],[0],[0],[1.1912342999712564],['target'],114,0,114,0,188.14428919996135,,10,188.11763059999794,188.14428919996135,188.14428919996135,0.05800020002061501,189.14486659999238,189.30962419998832,[-0.30078125],[-0.19791666666666666],[1],[0],[0],[1.1912342999712564],['target'],260865,001,2024-10-10_16h37.30.912,script,2024.2.1post4,60.10959180954964,2024-10-10 16h37.48.803722 +0530,
115,0,115,[-0.3567708333333333],[-0.3854166666666667],[1],[0],[0],[0.9014252999913879],['target'],115,0,115,0,189.35926519997884,,5,189.3413903999608,189.35926519997884,189.35926519997884,0.03144390002125874,,190.24353449995397,[-0.3567708333333333],[-0.3854166666666667],[1],[0],[0],[0.9014252999913879],['target'],260865,001,2024-10-10_16h37.30.912,script,2024.2.1post4,60.10959180954964,2024-10-10 16h37.48.803722 +0530,
116,0,116,[-0.29296875],[-0.3854166666666667],[0],[0],[1],[0.8200096999644302],['target'],116,0,116,0,190.2875892999582,,5,190.27222419995815,190.2875892999582,190.2875892999582,0.028474599996116012,,191.0928641000064,[-0.29296875],[-0.3854166666666667],[0],[0],[1],[0.8200096999644302],['target'],260865,001,2024-10-10_16h37.30.912,script,2024.2.1post4,60.10959180954964,2024-10-10 16h37.48.803722 +0530,
117,0,117,[0.01953125],[0.1015625],[1],[0],[0],[1.3630579000455327],['target'],117,0,117,0,191.1712159999879,,10,191.14649700000882,191.1712159999879,191.1712159999879,0.0533974000136368,192.17365959996823,192.5101484999759,[0.01953125],[0.1015625],[1],[0],[0],[1.3630579000455327],['target'],260865,001,2024-10-10_16h37.30.912,script,2024.2.1post4,60.10959180954964,2024-10-10 16h37.48.803722 +0530,
118,0,118,[0.24739583333333334],[0.2109375],[1],[0],[0],[1.313725300016813],['target'],118,0,118,0,192.60263089998625,,10,192.57902269996703,192.60263089998625,192.60263089998625,0.06856250000419095,193.60693479998736,193.89351719996193,[0.24739583333333334],[0.2109375],[1],[0],[0],[1.313725300016813],['target'],260865,001,2024-10-10_16h37.30.912,script,2024.2.1post4,60.10959180954964,2024-10-10 16h37.48.803722 +0530,
119,0,119,[-0.3697916666666667],[-0.4192708333333333],[1],[0],[0],[1.4974193000234663],['target'],119,0,119,0,193.9863095000037,,10,193.9621544999536,193.9863095000037,193.9863095000037,0.0682828999706544,194.99032529996475,195.46057259995723,[-0.3697916666666667],[-0.4192708333333333],[1],[0],[0],[1.4974193000234663],['target'],260865,001,2024-10-10_16h37.30.912,script,2024.2.1post4,60.10959180954964,2024-10-10 16h37.48.803722 +0530,
120,0,120,[0.06510416666666667],[-0.19921875],[1],[0],[0],[1.3468987000524066],['target'],120,0,120,0,195.55406029999722,,10,195.52903340000194,195.55406029999722,195.55406029999722,0.06814399996073917,196.55673199996818,196.87659989995882,[0.06510416666666667],[-0.19921875],[1],[0],[0],[1.3468987000524066],['target'],260865,001,2024-10-10_16h37.30.912,script,2024.2.1post4,60.10959180954964,2024-10-10 16h37.48.803722 +0530,
121,0,121,[-0.4895833333333333],[-0.17447916666666666],[1],[0],[0],[0.9752949000103399],['target'],121,0,121,0,196.93344930000603,,5,196.91735339997103,196.93344930000603,196.93344930000603,0.04050390003249049,,197.89328509999905,[-0.4895833333333333],[-0.17447916666666666],[1],[0],[0],[0.9752949000103399],['target'],260865,001,2024-10-10_16h37.30.912,script,2024.2.1post4,60.10959180954964,2024-10-10 16h37.48.803722 +0530,
122,0,122,[0.21744791666666666],[0.013020833333333334],[1],[0],[0],[1.2407995000248775],['target'],122,0,122,0,197.9507098000031,,5,197.9338956999709,197.9507098000031,197.9507098000031,0.04037110001081601,198.95682179997675,199.17532300000312,[0.21744791666666666],[0.013020833333333334],[1],[0],[0],[1.2407995000248775],['target'],260865,001,2024-10-10_16h37.30.912,script,2024.2.1post4,60.10959180954964,2024-10-10 16h37.48.803722 +0530,
123,0,123,[-0.19921875],[0.2604166666666667],[1],[0],[0],[1.004899599996861],['target'],123,0,123,0,199.2194270999753,,5,199.20394549996126,199.2194270999753,199.2194270999753,0.028378100018016994,200.3023767999839,200.2095760999946,[-0.19921875],[0.2604166666666667],[1],[0],[0],[1.004899599996861],['target'],260865,001,2024-10-10_16h37.30.912,script,2024.2.1post4,60.10959180954964,2024-10-10 16h37.48.803722 +0530,
124,0,124,[-0.15364583333333334],[0.08463541666666667],[1],[0],[0],[0.9139459000434726],['target'],124,0,124,0,200.3023767999839,,10,200.2778946000035,200.3023767999839,200.3023767999839,0.06809439999051392,,201.19251550000627,[-0.15364583333333334],[0.08463541666666667],[1],[0],[0],[0.9139459000434726],['target'],260865,001,2024-10-10_16h37.30.912,script,2024.2.1post4,60.10959180954964,2024-10-10 16h37.48.803722 +0530,
125,0,125,[0.11979166666666667],[0.2890625],[1],[0],[0],[1.272364300035406],['target'],125,0,125,0,201.23458469996694,,5,201.2198606999591,201.23458469996694,201.23458469996694,0.027154100011102855,202.23981229995843,202.4928673999966,[0.11979166666666667],[0.2890625],[1],[0],[0],[1.272364300035406],['target'],260865,001,2024-10-10_16h37.30.912,script,2024.2.1post4,60.10959180954964,2024-10-10 16h37.48.803722 +0530,
126,0,126,[0.4388020833333333],[0.25390625],[1],[0],[0],[2.1445522000431083],[None],126,0,126,0,202.58751679997658,,10,202.5641423999914,202.58751679997658,202.58751679997658,0.07103569997707382,203.58969699998852,204.70937369996682,[0.4388020833333333],[0.25390625],[1],[0],[0],[2.1445522000431083],[None],260865,001,2024-10-10_16h37.30.912,script,2024.2.1post4,60.10959180954964,2024-10-10 16h37.48.803722 +0530,
127,0,127,[0.09765625],[-0.3658854166666667],[1],[0],[0],[1.1746668000123464],['target'],127,0,127,0,204.7656893999665,,5,204.74997189996066,204.7656893999665,204.7656893999665,0.04030449996935204,205.77304719999665,205.9252808999736,[0.09765625],[-0.3658854166666667],[1],[0],[0],[1.1746668000123464],['target'],260865,001,2024-10-10_16h37.30.912,script,2024.2.1post4,60.10959180954964,2024-10-10 16h37.48.803722 +0530,
128,0,128,[0.2604166666666667],[-0.16927083333333334],[1],[0],[0],[1.9645790999638848],['target'],128,0,128,0,206.0187755000079,,10,205.9941780999652,206.0187755000079,206.0187755000079,0.06871880003018305,207.0232476000092,207.95940519997384,[0.2604166666666667],[-0.16927083333333334],[1],[0],[0],[1.9645790999638848],['target'],260865,001,2024-10-10_16h37.30.912,script,2024.2.1post4,60.10959180954964,2024-10-10 16h37.48.803722 +0530,
129,0,129,[-0.13151041666666666],[-0.3463541666666667],[1],[0],[0],[1.7799078000243753],['target'],129,0,129,0,208.05181079998147,,10,208.0288787999889,208.05181079998147,208.05181079998147,0.06914189999224618,209.0561663999688,209.80942979996325,[-0.13151041666666666],[-0.3463541666666667],[1],[0],[0],[1.7799078000243753],['target'],260865,001,2024-10-10_16h37.30.912,script,2024.2.1post4,60.10959180954964,2024-10-10 16h37.48.803722 +0530,
130,0,130,[-0.41796875],[0.15364583333333334],[1],[0],[0],[1.6119369000080042],['target'],130,0,130,0,209.88775039999746,,10,209.86302659998182,209.88775039999746,209.88775039999746,0.053341299993917346,210.88990409998223,211.4756364999921,[-0.41796875],[0.15364583333333334],[1],[0],[0],[1.6119369000080042],['target'],260865,001,2024-10-10_16h37.30.912,script,2024.2.1post4,60.10959180954964,2024-10-10 16h37.48.803722 +0530,
131,0,131,[-0.44921875],[-0.3033854166666667],[1],[0],[0],[1.0161655999836512],['target'],131,0,131,0,211.5642194999964,,10,211.54137399996398,211.5642194999964,211.5642194999964,0.06547110003884882,212.64166619995376,212.55806249997113,[-0.44921875],[-0.3033854166666667],[1],[0],[0],[1.0161655999836512],['target'],260865,001,2024-10-10_16h37.30.912,script,2024.2.1post4,60.10959180954964,2024-10-10 16h37.48.803722 +0530,
132,0,132,[-0.4557291666666667],[0.08854166666666667],[1],[0],[0],[1.0435076000285335],['target'],132,0,132,0,212.64166619995376,,10,212.61488529999042,212.64166619995376,212.64166619995376,0.056534299976192415,213.65601879998576,213.65904110000702,[-0.4557291666666667],[0.08854166666666667],[1],[0],[0],[1.0435076000285335],['target'],260865,001,2024-10-10_16h37.30.912,script,2024.2.1post4,60.10959180954964,2024-10-10 16h37.48.803722 +0530,
133,0,133,[0.41015625],[-0.12890625],[1],[0],[0],[1.7227606000378728],['target'],133,0,133,0,213.7007169999997,,5,213.68611869995948,213.7007169999997,213.7007169999997,0.026810800016392022,214.7058410999598,215.4095057999948,[0.41015625],[-0.12890625],[1],[0],[0],[1.7227606000378728],['target'],260865,001,2024-10-10_16h37.30.912,script,2024.2.1post4,60.10959180954964,2024-10-10 16h37.48.803722 +0530,
134,0,134,[-0.028645833333333332],[-0.3151041666666667],[1],[0],[0],[1.3776155000086874],['target'],134,0,134,0,215.48753139999462,,10,215.46284709998872,215.48753139999462,215.48753139999462,0.0529437999939546,216.48924439999973,216.84111779998057,[-0.028645833333333332],[-0.3151041666666667],[1],[0],[0],[1.3776155000086874],['target'],260865,001,2024-10-10_16h37.30.912,script,2024.2.1post4,60.10959180954964,2024-10-10 16h37.48.803722 +0530,
135,0,135,[0.0],[0.4466145833333333],[1],[0],[0],[1.7289687999873422],['target'],135,0,135,0,216.91943579999497,,10,216.8957945999573,216.91943579999497,216.91943579999497,0.05439830000977963,217.9230397999636,218.62544699996943,[0.0],[0.4466145833333333],[1],[0],[0],[1.7289687999873422],['target'],260865,001,2024-10-10_16h37.30.912,script,2024.2.1post4,60.10959180954964,2024-10-10 16h37.48.803722 +0530,
136,0,136,[0.13151041666666666],[-0.00390625],[1],[0],[0],[2.2810372000094503],['target'],136,0,136,0,218.69911389995832,,10,218.6772404999938,218.69911389995832,218.69911389995832,0.0515284999855794,219.7055080999853,220.95893049996812,[0.13151041666666666],[-0.00390625],[1],[0],[0],[2.2810372000094503],['target'],260865,001,2024-10-10_16h37.30.912,script,2024.2.1post4,60.10959180954964,2024-10-10 16h37.48.803722 +0530,
137,0,137,[-0.018229166666666668],[-0.3346354166666667],[1],[0],[0],[1.4472636999562383],['target'],137,0,137,0,221.05112269998062,,10,221.02720549999503,221.05112269998062,221.05112269998062,0.06797969999024644,222.0556090999744,222.4751791000017,[-0.018229166666666668],[-0.3346354166666667],[1],[0],[0],[1.4472636999562383],['target'],260865,001,2024-10-10_16h37.30.912,script,2024.2.1post4,60.10959180954964,2024-10-10 16h37.48.803722 +0530,
138,0,138,[0.2578125],[-0.11328125],[1],[0],[0],[1.559115300013218],['target'],138,0,138,0,222.531656200008,,5,222.51613800000632,222.531656200008,222.531656200008,0.04068029997870326,223.5386911999667,224.07596529996954,[0.2578125],[-0.11328125],[1],[0],[0],[1.559115300013218],['target'],260865,001,2024-10-10_16h37.30.912,script,2024.2.1post4,60.10959180954964,2024-10-10 16h37.48.803722 +0530,
139,0,139,[0.3684895833333333],[0.171875],[1],[0],[0],[1.3043726999894716],['target'],139,0,139,0,224.1188347999705,,5,224.1033438000013,224.1188347999705,224.1188347999705,0.02718719997210428,225.12193599995226,225.40850159997353,[0.3684895833333333],[0.171875],[1],[0],[0],[1.3043726999894716],['target'],260865,001,2024-10-10_16h37.30.912,script,2024.2.1post4,60.10959180954964,2024-10-10 16h37.48.803722 +0530,
140,0,140,[-0.1171875],[0.040364583333333336],[1],[0],[0],[1.4479091999819502],['target'],140,0,140,0,225.50261769996723,,10,225.4766051999759,225.50261769996723,225.50261769996723,0.06787550001172349,226.5055364999571,226.9251863999525,[-0.1171875],[0.040364583333333336],[1],[0],[0],[1.4479091999819502],['target'],260865,001,2024-10-10_16h37.30.912,script,2024.2.1post4,60.10959180954964,2024-10-10 16h37.48.803722 +0530,
141,0,141,[-0.2994791666666667],[0.12760416666666666],[1],[0],[0],[1.7195107999723405],['target'],141,0,141,0,226.9691557000042,,5,226.9546449999907,226.9691557000042,226.9691557000042,0.02918449998833239,227.97198889998253,228.67478549998486,[-0.2994791666666667],[0.12760416666666666],[1],[0],[0],[1.7195107999723405],['target'],260865,001,2024-10-10_16h37.30.912,script,2024.2.1post4,60.10959180954964,2024-10-10 16h37.48.803722 +0530,
142,0,142,[0.0026041666666666665],[-0.24348958333333334],[1],[0],[0],[1.555452000000514],['target'],142,0,142,0,228.71668369998224,,5,228.7020755999838,228.71668369998224,228.71668369998224,0.02707650000229478,229.7217025999562,230.25815999996848,[0.0026041666666666665],[-0.24348958333333334],[1],[0],[0],[1.555452000000514],['target'],260865,001,2024-10-10_16h37.30.912,script,2024.2.1post4,60.10959180954964,2024-10-10 16h37.48.803722 +0530,
143,0,143,[-0.3567708333333333],[-0.4088541666666667],[1],[0],[0],[1.2390497999731451],['target'],143,0,143,0,230.30047379998723,,5,230.28481539996574,230.30047379998723,230.30047379998723,0.02645830000983551,231.3050535999937,231.52448550000554,[-0.3567708333333333],[-0.4088541666666667],[1],[0],[0],[1.2390497999731451],['target'],260865,001,2024-10-10_16h37.30.912,script,2024.2.1post4,60.10959180954964,2024-10-10 16h37.48.803722 +0530,
144,0,144,[0.2890625],[-0.4361979166666667],[1],[0],[0],[2.0158096000086516],['target'],144,0,144,0,231.61653130000923,,10,231.59137380000902,231.61653130000923,231.61653130000923,0.0666448000119999,232.62180009996518,233.6078181999619,[0.2890625],[-0.4361979166666667],[1],[0],[0],[2.0158096000086516],['target'],260865,001,2024-10-10_16h37.30.912,script,2024.2.1post4,60.10959180954964,2024-10-10 16h37.48.803722 +0530,
145,0,145,[0.3723958333333333],[-0.3684895833333333],[1],[0],[0],[2.9564369000145234],['target'],145,0,145,0,233.64954339998076,,5,233.63441279996186,233.64954339998076,233.64954339998076,0.026352699962444603,234.6549975000089,236.59153569996124,[0.3723958333333333],[-0.3684895833333333],[1],[0],[0],[2.9564369000145234],['target'],260865,001,2024-10-10_16h37.30.912,script,2024.2.1post4,60.10959180954964,2024-10-10 16h37.48.803722 +0530,
146,0,146,[-0.37109375],[-0.3072916666666667],[1],[0],[0],[1.489228299993556],['target'],146,0,146,0,236.63196999998763,,5,236.61650189995999,236.63196999998763,236.63196999998763,0.024748299969360232,237.6384979999857,238.10638499999186,[-0.37109375],[-0.3072916666666667],[1],[0],[0],[1.489228299993556],['target'],260865,001,2024-10-10_16h37.30.912,script,2024.2.1post4,60.10959180954964,2024-10-10 16h37.48.803722 +0530,
147,0,147,[-0.0013020833333333333],[0.11067708333333333],[1],[0],[0],[1.7481706999824382],['target'],147,0,147,0,238.1819792999886,,10,238.15860269998666,238.1819792999886,238.1819792999886,0.05196429998613894,239.18792940001003,239.90739309997298,[-0.0013020833333333333],[0.11067708333333333],[1],[0],[0],[1.7481706999824382],['target'],260865,001,2024-10-10_16h37.30.912,script,2024.2.1post4,60.10959180954964,2024-10-10 16h37.48.803722 +0530,
148,0,148,[-0.17838541666666666],[-0.020833333333333332],[1],[0],[0],[0.9849401999963447],['target'],148,0,148,0,239.994038899953,,10,239.97107239998877,239.994038899953,239.994038899953,0.06343249999918044,,240.9565683999681,[-0.17838541666666666],[-0.020833333333333332],[1],[0],[0],[0.9849401999963447],['target'],260865,001,2024-10-10_16h37.30.912,script,2024.2.1post4,60.10959180954964,2024-10-10 16h37.48.803722 +0530,
149,0,149,[0.3736979166666667],[-0.109375],[1],[0],[0],[1.0323543999693356],[None],149,0,149,0,241.04774229996838,,10,241.02451889996883,241.04774229996838,241.04774229996838,0.06770270003471524,242.0545386999729,242.05750229995465,[0.3736979166666667],[-0.109375],[1],[0],[0],[1.0323543999693356],[None],260865,001,2024-10-10_16h37.30.912,script,2024.2.1post4,60.10959180954964,2024-10-10 16h37.48.803722 +0530,
150,0,150,[0.21744791666666666],[-0.18098958333333334],[1],[0],[0],[1.2714353000046685],[None],150,0,150,0,242.10008720000042,,5,242.0852060999605,242.10008720000042,242.10008720000042,0.027457399992272258,243.10467879998032,243.35729719995288,[0.21744791666666666],[-0.18098958333333334],[1],[0],[0],[1.2714353000046685],[None],260865,001,2024-10-10_16h37.30.912,script,2024.2.1post4,60.10959180954964,2024-10-10 16h37.48.803722 +0530,
151,0,151,[-0.010416666666666666],[-0.19140625],[1],[0],[0],[0.8898074000026099],[None],151,0,151,0,243.39987560000736,,5,243.3837694999529,243.39987560000736,243.39987560000736,0.026219199993647635,,244.27429159998428,[-0.010416666666666666],[-0.19140625],[1],[0],[0],[0.8898074000026099],[None],260865,001,2024-10-10_16h37.30.912,script,2024.2.1post4,60.10959180954964,2024-10-10 16h37.48.803722 +0530,
152,0,152,[-0.006510416666666667],[-0.3489583333333333],[1],[0],[0],[0.8881346000125632],[None],152,0,152,0,244.31720499997027,,5,244.30219369998667,244.31720499997027,244.31720499997027,0.027705599961336702,,245.19098859996302,[-0.006510416666666667],[-0.3489583333333333],[1],[0],[0],[0.8881346000125632],[None],260865,001,2024-10-10_16h37.30.912,script,2024.2.1post4,60.10959180954964,2024-10-10 16h37.48.803722 +0530,
153,0,153,[0.3203125],[-0.07942708333333333],[1],[0],[0],[1.6935436999774538],['target'],153,0,153,0,245.27015299996128,,10,245.24602089996915,245.27015299996128,245.27015299996128,0.05483890004688874,246.27088289998937,246.94015320000472,[0.3203125],[-0.07942708333333333],[1],[0],[0],[1.6935436999774538],['target'],260865,001,2024-10-10_16h37.30.912,script,2024.2.1post4,60.10959180954964,2024-10-10 16h37.48.803722 +0530,
154,0,154,[0.040364583333333336],[0.46875],[1],[0],[0],[2.3002938000136055],['target'],154,0,154,0,247.0306600999902,,10,247.00661839998793,247.0306600999902,247.0306600999902,0.06625490001169965,248.0375417000032,249.30753019999247,[0.040364583333333336],[0.46875],[1],[0],[0],[2.3002938000136055],['target'],260865,001,2024-10-10_16h37.30.912,script,2024.2.1post4,60.10959180954964,2024-10-10 16h37.48.803722 +0530,
155,0,155,[-0.24479166666666666],[0.4895833333333333],[1],[0],[0],[3.4104049000306986],['target'],155,0,155,0,249.38588879996678,,10,249.3620440000086,249.38588879996678,249.38588879996678,0.05424150003818795,250.38772150001023,252.7741396999918,[-0.24479166666666666],[0.4895833333333333],[1],[0],[0],[3.4104049000306986],['target'],260865,001,2024-10-10_16h37.30.912,script,2024.2.1post4,60.10959180954964,2024-10-10 16h37.48.803722 +0530,
156,0,156,[-0.3111979166666667],[0.16927083333333334],[1],[0],[0],[1.0234343000338413],['target'],156,0,156,0,252.85788719996344,,10,252.8327615999733,252.85788719996344,252.85788719996344,0.0583232999779284,253.93364249996375,253.85680730000604,[-0.3111979166666667],[0.16927083333333334],[1],[0],[0],[1.0234343000338413],['target'],260865,001,2024-10-10_16h37.30.912,script,2024.2.1post4,60.10959180954964,2024-10-10 16h37.48.803722 +0530,
157,0,157,[-0.48828125],[-0.24479166666666666],[1],[0],[0],[1.1957198000163771],['target'],157,0,157,0,253.93364249996375,,10,253.91036939999321,253.93364249996375,253.93364249996375,0.0533348000026308,254.9374114999664,255.10672549996525,[-0.48828125],[-0.24479166666666666],[1],[0],[0],[1.1957198000163771],['target'],260865,001,2024-10-10_16h37.30.912,script,2024.2.1post4,60.10959180954964,2024-10-10 16h37.48.803722 +0530,
158,0,158,[0.125],[-0.06770833333333333],[1],[0],[0],[1.3527614999911748],[None],158,0,158,0,255.2135927999625,,10,255.1860558000044,255.2135927999625,255.2135927999625,0.07905549998395145,256.2206109999679,256.5394970999914,[0.125],[-0.06770833333333333],[1],[0],[0],[1.3527614999911748],[None],260865,001,2024-10-10_16h37.30.912,script,2024.2.1post4,60.10959180954964,2024-10-10 16h37.48.803722 +0530,
159,0,159,[-0.16796875],[-0.3580729166666667],[1],[0],[0],[1.141003200027626],[None],159,0,159,0,256.5824407999753,,5,256.5659888999653,256.5824407999753,256.5824407999753,0.026214999961666763,257.58747599995695,257.70757779997075,[-0.16796875],[-0.3580729166666667],[1],[0],[0],[1.141003200027626],[None],260865,001,2024-10-10_16h37.30.912,script,2024.2.1post4,60.10959180954964,2024-10-10 16h37.48.803722 +0530,
160,0,160,[0.029947916666666668],[-0.2799479166666667],[1],[0],[0],[1.998932100017555],['target'],160,0,160,0,257.7978537000017,,10,257.77392169996165,257.7978537000017,257.7978537000017,0.06611989997327328,258.80428969999775,259.77356669999426,[0.029947916666666668],[-0.2799479166666667],[1],[0],[0],[1.998932100017555],['target'],260865,001,2024-10-10_16h37.30.912,script,2024.2.1post4,60.10959180954964,2024-10-10 16h37.48.803722 +0530,
161,0,161,[-0.5130208333333334],[0.13802083333333334],[1],[0],[0],[1.5286213000072166],[None],161,0,161,0,259.85258750000503,,10,259.82784260000335,259.85258750000503,259.85258750000503,0.054023000004235655,260.8538730999571,261.35707399999956,[-0.5130208333333334],[0.13802083333333334],[1],[0],[0],[1.5286213000072166],[None],260865,001,2024-10-10_16h37.30.912,script,2024.2.1post4,60.10959180954964,2024-10-10 16h37.48.803722 +0530,
162,0,162,[-0.3776041666666667],[-0.3033854166666667],[1],[0],[0],[3.0379225999931805],['target'],162,0,162,0,261.4008891999838,,5,261.38469799997984,261.4008891999838,261.4008891999838,0.02732499997364357,262.4034616999561,264.42336359998444,[-0.3776041666666667],[-0.3033854166666667],[1],[0],[0],[3.0379225999931805],['target'],260865,001,2024-10-10_16h37.30.912,script,2024.2.1post4,60.10959180954964,2024-10-10 16h37.48.803722 +0530,
163,0,163,[0.02734375],[-0.05859375],[1],[0],[0],[1.1238327999599278],['target'],163,0,163,0,264.48170509998454,,5,264.4656934000086,264.48170509998454,264.48170509998454,0.04211139999097213,265.48707099998137,265.59015429997817,[0.02734375],[-0.05859375],[1],[0],[0],[1.1238327999599278],['target'],260865,001,2024-10-10_16h37.30.912,script,2024.2.1post4,60.10959180954964,2024-10-10 16h37.48.803722 +0530,
164,0,164,[-0.19270833333333334],[-0.421875],[1],[0],[0],[1.1140207999851555],[None],164,0,164,0,265.68091369996546,,10,265.6579433999723,265.68091369996546,265.68091369996546,0.06756919994950294,266.68681609997293,266.77277809998486,[-0.19270833333333334],[-0.421875],[1],[0],[0],[1.1140207999851555],[None],260865,001,2024-10-10_16h37.30.912,script,2024.2.1post4,60.10959180954964,2024-10-10 16h37.48.803722 +0530,
165,0,165,[-0.11848958333333333],[0.20182291666666666],[1],[0],[0],[1.414336199988611],['target'],165,0,165,0,266.84938520001015,,10,266.8256378999795,266.84938520001015,266.84938520001015,0.05258210003376007,267.8533707999741,268.24066109996056,[-0.11848958333333333],[0.20182291666666666],[1],[0],[0],[1.414336199988611],['target'],260865,001,2024-10-10_16h37.30.912,script,2024.2.1post4,60.10959180954964,2024-10-10 16h37.48.803722 +0530,
166,0,166,[-0.3463541666666667],[0.19010416666666666],[1],[0],[0],[1.037283000012394],[None],166,0,166,0,268.28275259997463,,5,268.2681816999684,268.28275259997463,268.28275259997463,0.02723800000967458,269.286564799957,269.3062788999523,[-0.3463541666666667],[0.19010416666666666],[1],[0],[0],[1.037283000012394],[None],260865,001,2024-10-10_16h37.30.912,script,2024.2.1post4,60.10959180954964,2024-10-10 16h37.48.803722 +0530,
167,0,167,[-0.09114583333333333],[0.2916666666666667],[1],[0],[0],[0.9295524000190198],['target'],167,0,167,0,269.39946109999437,,10,269.3757898999611,269.39946109999437,269.39946109999437,0.06925519998185337,,270.30616959999315,[-0.09114583333333333],[0.2916666666666667],[1],[0],[0],[0.9295524000190198],['target'],260865,001,2024-10-10_16h37.30.912,script,2024.2.1post4,60.10959180954964,2024-10-10 16h37.48.803722 +0530,
168,0,168,[-0.3580729166666667],[0.24869791666666666],[1],[0],[0],[0.9398814999731258],['target'],168,0,168,0,270.34849439997924,,5,270.33253739995416,270.34849439997924,270.34849439997924,0.026093000022228807,,271.2731017000042,[-0.3580729166666667],[0.24869791666666666],[1],[0],[0],[0.9398814999731258],['target'],260865,001,2024-10-10_16h37.30.912,script,2024.2.1post4,60.10959180954964,2024-10-10 16h37.48.803722 +0530,
169,0,169,[0.016927083333333332],[0.125],[1],[0],[0],[1.221237099962309],['target'],169,0,169,0,271.3149347999715,,5,271.30017159995623,271.3149347999715,271.3149347999715,0.026881500030867755,272.3195135999704,272.5220431999769,[0.016927083333333332],[0.125],[1],[0],[0],[1.221237099962309],['target'],260865,001,2024-10-10_16h37.30.912,script,2024.2.1post4,60.10959180954964,2024-10-10 16h37.48.803722 +0530,
170,0,170,[0.296875],[0.23307291666666666],[1],[0],[0],[1.6141331999679096],['target'],170,0,170,0,272.6164226999972,,10,272.5911055000033,272.6164226999972,272.6164226999972,0.06885089998831972,273.619617999997,274.20584789995337,[0.296875],[0.23307291666666666],[1],[0],[0],[1.6141331999679096],['target'],260865,001,2024-10-10_16h37.30.912,script,2024.2.1post4,60.10959180954964,2024-10-10 16h37.48.803722 +0530,
171,0,171,[-0.4153645833333333],[0.36328125],[1],[0],[0],[0.9364117999793962],['target'],171,0,171,0,274.2922709999839,,10,274.2679563999991,274.2922709999839,274.2922709999839,0.061863499984610826,,275.20491289999336,[-0.4153645833333333],[0.36328125],[1],[0],[0],[0.9364117999793962],['target'],260865,001,2024-10-10_16h37.30.912,script,2024.2.1post4,60.10959180954964,2024-10-10 16h37.48.803722 +0530,
172,0,172,[0.15234375],[0.2669270833333333],[1],[0],[0],[1.2436175999464467],['target'],172,0,172,0,275.28877929999726,,10,275.26226089999545,275.28877929999726,275.28877929999726,0.057079500053077936,276.30324290000135,276.5064078999567,[0.15234375],[0.2669270833333333],[1],[0],[0],[1.2436175999464467],['target'],260865,001,2024-10-10_16h37.30.912,script,2024.2.1post4,60.10959180954964,2024-10-10 16h37.48.803722 +0530,
173,0,173,[0.049479166666666664],[-0.08072916666666667],[1],[0],[0],[0.8464405999984592],['target'],173,0,173,0,276.59801059996244,,10,276.57472679996863,276.59801059996244,276.59801059996244,0.06807400000980124,,277.4218840999529,[0.049479166666666664],[-0.08072916666666667],[1],[0],[0],[0.8464405999984592],['target'],260865,001,2024-10-10_16h37.30.912,script,2024.2.1post4,60.10959180954964,2024-10-10 16h37.48.803722 +0530,
174,0,174,[-0.3203125],[0.16666666666666666],[1],[0],[0],[1.9065343999536708],['target'],174,0,174,0,277.50797869998496,,10,277.48236269998597,277.50797869998496,277.50797869998496,0.06023220001952723,278.519836499996,279.38954859995283,[-0.3203125],[0.16666666666666666],[1],[0],[0],[1.9065343999536708],['target'],260865,001,2024-10-10_16h37.30.912,script,2024.2.1post4,60.10959180954964,2024-10-10 16h37.48.803722 +0530,
175,0,175,[-0.3203125],[0.16666666666666666],[1],[0],[0],[0.4451806000433862],[None],175,0,175,0,279.48536990000866,,10,279.4600750999525,279.48536990000866,279.48536990000866,0.07025470002554357,,279.9058874999755,[-0.3203125],[0.16666666666666666],[1],[0],[0],[0.4451806000433862],[None],260865,001,2024-10-10_16h37.30.912,script,2024.2.1post4,60.10959180954964,2024-10-10 16h37.48.803722 +0530,
176,0,176,[-0.23828125],[-0.4479166666666667],[1],[0],[0],[1.696432399970945],['target'],176,0,176,0,279.982225499989,,10,279.95781729999,279.982225499989,279.982225499989,0.05168079998111352,280.98602989997016,281.6549069999601,[-0.23828125],[-0.4479166666666667],[1],[0],[0],[1.696432399970945],['target'],260865,001,2024-10-10_16h37.30.912,script,2024.2.1post4,60.10959180954964,2024-10-10 16h37.48.803722 +0530,
177,0,177,[0.2760416666666667],[-0.18489583333333334],[1],[0],[0],[1.6935225000488572],['target'],177,0,177,0,281.73407399997814,,10,281.710960299999,281.73407399997814,281.73407399997814,0.05580190004548058,282.73604210000485,283.4051379999728,[0.2760416666666667],[-0.18489583333333334],[1],[0],[0],[1.6935225000488572],['target'],260865,001,2024-10-10_16h37.30.912,script,2024.2.1post4,60.10959180954964,2024-10-10 16h37.48.803722 +0530,
178,0,178,[0.032552083333333336],[0.44921875],[1],[0],[0],[4.045304399973247],['target'],178,0,178,0,283.4831382999546,,10,283.4585944999708,283.4831382999546,283.4831382999546,0.05320580000989139,284.48584509996,287.5046186999534,[0.032552083333333336],[0.44921875],[1],[0],[0],[4.045304399973247],['target'],260865,001,2024-10-10_16h37.30.912,script,2024.2.1post4,60.10959180954964,2024-10-10 16h37.48.803722 +0530,
179,0,179,[-0.4270833333333333],[-0.4739583333333333],[1],[0],[0],[1.961197099997662],['target'],179,0,179,0,287.55866039998364,,5,287.5435734000057,287.55866039998364,287.55866039998364,0.03870789997745305,288.5688697999576,289.5053367000073,[-0.4270833333333333],[-0.4739583333333333],[1],[0],[0],[1.961197099997662],['target'],260865,001,2024-10-10_16h37.30.912,script,2024.2.1post4,60.10959180954964,2024-10-10 16h37.48.803722 +0530,
180,0,180,[0.10807291666666667],[0.2981770833333333],[1],[0],[0],[1.4279628000222147],['target'],180,0,180,0,289.5833066999912,,10,289.55990950000705,289.5833066999912,289.5833066999912,0.05434810003498569,290.585514699982,290.98851599998306,[0.10807291666666667],[0.2981770833333333],[1],[0],[0],[1.4279628000222147],['target'],260865,001,2024-10-10_16h37.30.912,script,2024.2.1post4,60.10959180954964,2024-10-10 16h37.48.803722 +0530,
181,0,181,[0.3268229166666667],[-0.4453125],[1],[0],[0],[1.443009999988135],[None],181,0,181,0,291.0438447999768,,5,291.0284447000013,291.0438447999768,291.0438447999768,0.03967249998822808,292.05260049999924,292.47205819998635,[0.3268229166666667],[-0.4453125],[1],[0],[0],[1.443009999988135],[None],260865,001,2024-10-10_16h37.30.912,script,2024.2.1post4,60.10959180954964,2024-10-10 16h37.48.803722 +0530,
182,0,182,[-0.20052083333333334],[-0.10546875],[1],[0],[0],[1.0546299000270665],['target'],182,0,182,0,292.5150375000085,,5,292.499476899975,292.5150375000085,292.5150375000085,0.027214900008402765,293.51896039996063,293.5548475999967,[-0.20052083333333334],[-0.10546875],[1],[0],[0],[1.0546299000270665],['target'],260865,001,2024-10-10_16h37.30.912,script,2024.2.1post4,60.10959180954964,2024-10-10 16h37.48.803722 +0530,
183,0,183,[-0.4791666666666667],[0.13932291666666666],[1],[0],[0],[1.2557243999908678],['target'],183,0,183,0,293.59683180000866,,5,293.5812190999859,293.59683180000866,293.59683180000866,0.026155199971981347,294.60219760000473,294.83816519996617,[-0.4791666666666667],[0.13932291666666666],[1],[0],[0],[1.2557243999908678],['target'],260865,001,2024-10-10_16h37.30.912,script,2024.2.1post4,60.10959180954964,2024-10-10 16h37.48.803722 +0530,
184,0,184,[0.09375],[-0.018229166666666668],[1],[0],[0],[2.1645534000126645],['target'],184,0,184,0,294.93132669996703,,10,294.90631299995584,294.93132669996703,294.93132669996703,0.06790820002788678,295.93576349999057,297.07155269995565,[0.09375],[-0.018229166666666668],[1],[0],[0],[2.1645534000126645],['target'],260865,001,2024-10-10_16h37.30.912,script,2024.2.1post4,60.10959180954964,2024-10-10 16h37.48.803722 +0530,
185,0,185,[0.3828125],[0.09244791666666667],[1],[0],[0],[1.2154218000359833],['target'],185,0,185,0,297.16419849998783,,10,297.1406520999735,297.16419849998783,297.16419849998783,0.06867860001511872,298.16852229996584,298.3568272999837,[0.3828125],[0.09244791666666667],[1],[0],[0],[1.2154218000359833],['target'],260865,001,2024-10-10_16h37.30.912,script,2024.2.1post4,60.10959180954964,2024-10-10 16h37.48.803722 +0530,
186,0,186,[-0.3528645833333333],[0.4427083333333333],[1],[0],[0],[1.8533080000197515],['target'],186,0,186,0,298.39946109999437,,5,298.38471169996774,298.39946109999437,298.39946109999437,0.02763349999440834,299.4021534000058,300.2387062999769,[-0.3528645833333333],[0.4427083333333333],[1],[0],[0],[1.8533080000197515],['target'],260865,001,2024-10-10_16h37.30.912,script,2024.2.1post4,60.10959180954964,2024-10-10 16h37.48.803722 +0530,
187,0,187,[0.2708333333333333],[-0.13671875],[1],[0],[0],[5.29592559998855],['target'],187,0,187,0,300.3328598999651,,10,300.30691389995627,300.3328598999651,300.3328598999651,0.06799999997019768,301.3354963999591,305.603524199978,[0.2708333333333333],[-0.13671875],[1],[0],[0],[5.29592559998855],['target'],260865,001,2024-10-10_16h37.30.912,script,2024.2.1post4,60.10959180954964,2024-10-10 16h37.48.803722 +0530,
188,0,188,[0.4375],[-0.22005208333333334],[1],[0],[0],[1.306425200018566],[None],188,0,188,0,305.64671549998457,,5,305.6313935999642,305.64671549998457,305.64671549998457,0.027617800049483776,306.65147019998403,306.93847339996137,[0.4375],[-0.22005208333333334],[1],[0],[0],[1.306425200018566],[None],260865,001,2024-10-10_16h37.30.912,script,2024.2.1post4,60.10959180954964,2024-10-10 16h37.48.803722 +0530,
189,0,189,[-0.38671875],[0.4231770833333333],[1],[0],[0],[1.1049005999811925],['target'],189,0,189,0,306.98078320000786,,5,306.9655590999755,306.98078320000786,306.98078320000786,0.02684519998729229,307.984720599954,308.0712696999544,[-0.38671875],[0.4231770833333333],[1],[0],[0],[1.1049005999811925],['target'],260865,001,2024-10-10_16h37.30.912,script,2024.2.1post4,60.10959180954964,2024-10-10 16h37.48.803722 +0530,
190,0,190,[-0.30859375],[-0.20963541666666666],[1],[0],[0],[1.1309920999919996],['target'],190,0,190,0,308.163956400007,,10,308.13995919999434,308.163956400007,308.163956400007,0.06849030003650114,309.1681495999801,309.27175379998516,[-0.30859375],[-0.20963541666666666],[1],[0],[0],[1.1309920999919996],['target'],260865,001,2024-10-10_16h37.30.912,script,2024.2.1post4,60.10959180954964,2024-10-10 16h37.48.803722 +0530,
191,0,191,[-0.4674479166666667],[-0.13932291666666666],[1],[0],[0],[1.043119799986016],['target'],191,0,191,0,309.357673099963,,10,309.3275148999528,309.357673099963,309.357673099963,0.05545609997352585,310.36797540000407,310.37130369996885,[-0.4674479166666667],[-0.13932291666666666],[1],[0],[0],[1.043119799986016],['target'],260865,001,2024-10-10_16h37.30.912,script,2024.2.1post4,60.10959180954964,2024-10-10 16h37.48.803722 +0530,
192,0,192,[-0.19661458333333334],[0.2578125],[1],[0],[0],[1.4212773999897763],['target'],192,0,192,0,310.41466849995777,,5,310.39914709998993,310.41466849995777,310.41466849995777,0.027499200019519776,311.4178670999827,311.82104740000796,[-0.19661458333333334],[0.2578125],[1],[0],[0],[1.4212773999897763],['target'],260865,001,2024-10-10_16h37.30.912,script,2024.2.1post4,60.10959180954964,2024-10-10 16h37.48.803722 +0530,
193,0,193,[-0.3020833333333333],[-0.3203125],[1],[0],[0],[1.3760888999677263],['target'],193,0,193,0,311.877299499989,,5,311.8613311999943,311.877299499989,311.877299499989,0.04009089997271076,312.8844892999623,313.2380731999874,[-0.3020833333333333],[-0.3203125],[1],[0],[0],[1.3760888999677263],['target'],260865,001,2024-10-10_16h37.30.912,script,2024.2.1post4,60.10959180954964,2024-10-10 16h37.48.803722 +0530,
194,0,194,[0.13802083333333334],[0.09114583333333333],[1],[0],[0],[0.9215188999660313],['target'],194,0,194,0,313.279868899961,,5,313.2648981999955,313.279868899961,313.279868899961,0.026595600007567555,,314.1870065999683,[0.13802083333333334],[0.09114583333333333],[1],[0],[0],[0.9215188999660313],['target'],260865,001,2024-10-10_16h37.30.912,script,2024.2.1post4,60.10959180954964,2024-10-10 16h37.48.803722 +0530,
195,0,195,[-0.13411458333333334],[0.2643229166666667],[1],[0],[0],[0.8102965999860317],['target'],195,0,195,0,314.26508589996956,,10,314.2420904999599,314.26508589996956,314.26508589996956,0.05483739997725934,,315.05293189996155,[-0.13411458333333334],[0.2643229166666667],[1],[0],[0],[0.8102965999860317],['target'],260865,001,2024-10-10_16h37.30.912,script,2024.2.1post4,60.10959180954964,2024-10-10 16h37.48.803722 +0530,
196,0,196,[-0.14453125],[0.3932291666666667],[1],[0],[0],[0.8727666999911889],['target'],196,0,196,0,315.09631249995437,,5,315.0797965999809,315.09631249995437,315.09631249995437,0.026612000016029924,,315.9531986999791,[-0.14453125],[0.3932291666666667],[1],[0],[0],[0.8727666999911889],['target'],260865,001,2024-10-10_16h37.30.912,script,2024.2.1post4,60.10959180954964,2024-10-10 16h37.48.803722 +0530,
197,0,197,[-0.3424479166666667],[0.3255208333333333],[1],[0],[0],[0.736772199976258],['target'],197,0,197,0,315.997800299956,,5,315.9820817,315.997800299956,315.997800299956,0.028696199995465577,,316.7195300000021,[-0.3424479166666667],[0.3255208333333333],[1],[0],[0],[0.736772199976258],['target'],260865,001,2024-10-10_16h37.30.912,script,2024.2.1post4,60.10959180954964,2024-10-10 16h37.48.803722 +0530,
198,0,198,[0.4114583333333333],[0.3697916666666667],[1],[0],[0],[1.7790819000219926],[None],198,0,198,0,316.7988347999635,,10,316.77330780000193,316.7988347999635,316.7988347999635,0.05358240002533421,317.80122949997894,318.5530299000093,[0.4114583333333333],[0.3697916666666667],[1],[0],[0],[1.7790819000219926],[None],260865,001,2024-10-10_16h37.30.912,script,2024.2.1post4,60.10959180954964,2024-10-10 16h37.48.803722 +0530,
199,0,199,[-0.3619791666666667],[0.48046875],[1],[0],[0],[2.3413010999793187],['target'],199,0,199,0,318.59224799997173,,5,318.5775410999777,318.59224799997173,318.59224799997173,0.024205599969718605,319.6012998999795,320.9194908000063,[-0.3619791666666667],[0.48046875],[1],[0],[0],[2.3413010999793187],['target'],260865,001,2024-10-10_16h37.30.912,script,2024.2.1post4,60.10959180954964,2024-10-10 16h37.48.803722 +0530,
