thisN,thisTrialN,thisRepN,mouse.x,mouse.y,mouse.leftButton,mouse.midButton,mouse.rightButton,mouse.time,mouse.clicked_name,trials.thisRepN,trials.thisTrialN,trials.thisN,trials.thisIndex,thisRow.t,notes,num_distr,trial.started,fixation.started,target.started,mouse.started,fixation.stopped,trial.stopped,trials.mouse.x,trials.mouse.y,trials.mouse.leftButton,trials.mouse.midButton,trials.mouse.rightButton,trials.mouse.time,trials.mouse.clicked_name,participant,session,date,expName,psychopyVersion,frameRate,expStart,
0,0,0,[0.4166666666666667],[0.2825520833333333],[1],[0],[0],[1.8117625000304542],['target'],0,0,0,0,0.08603350003249943,,5,0.058576100040227175,0.08603350003249943,0.08603350003249943,0.057861700013745576,1.1003964000265114,1.8710074000409804,[0.4166666666666667],[0.2825520833333333],[1],[0],[0],[1.8117625000304542],['target'],683392,001,2024-10-10_16h17.04.585,script,2024.2.1post4,59.89279190889549,2024-10-10 16h17.13.563138 +0530,
1,0,1,[0.37890625],[0.07421875],[1],[0],[0],[2.047929100051988],['target'],1,0,1,0,1.9653186000068672,,10,1.939441700000316,1.9653186000068672,1.9653186000068672,0.06812320003518835,2.968747200036887,3.988317100040149,[0.37890625],[0.07421875],[1],[0],[0],[2.047929100051988],['target'],683392,001,2024-10-10_16h17.04.585,script,2024.2.1post4,59.89279190889549,2024-10-10 16h17.13.563138 +0530,
2,0,2,[0.22135416666666666],[0.10416666666666667],[1],[0],[0],[1.1455535999848507],['target'],2,0,2,0,4.042825700016692,,5,4.023553800012451,4.042825700016692,4.042825700016692,0.03490030003013089,5.050933300051838,5.169824900047388,[0.22135416666666666],[0.10416666666666667],[1],[0],[0],[1.1455535999848507],['target'],683392,001,2024-10-10_16h17.04.585,script,2024.2.1post4,59.89279190889549,2024-10-10 16h17.13.563138 +0530,
3,0,3,[-0.09244791666666667],[-0.046875],[1],[0],[0],[1.332090399984736],['target'],3,0,3,0,5.222249800048303,,5,5.203442800033372,5.222249800048303,5.222249800048303,0.033368100004736334,6.2346936000394635,6.53620500001125,[-0.09244791666666667],[-0.046875],[1],[0],[0],[1.332090399984736],['target'],683392,001,2024-10-10_16h17.04.585,script,2024.2.1post4,59.89279190889549,2024-10-10 16h17.13.563138 +0530,
4,0,4,[-0.057291666666666664],[0.3658854166666667],[1],[0],[0],[1.3143170999828726],['target'],4,0,4,0,6.633934500045143,,10,6.605312800034881,6.633934500045143,6.633934500045143,0.06886219995794818,7.634139600035269,7.920281700033229,[-0.057291666666666664],[0.3658854166666667],[1],[0],[0],[1.3143170999828726],['target'],683392,001,2024-10-10_16h17.04.585,script,2024.2.1post4,59.89279190889549,2024-10-10 16h17.13.563138 +0530,
5,0,5,[0.21223958333333334],[-0.4440104166666667],[1],[0],[0],[1.851178799988702],['target'],5,0,5,0,7.974557900044601,,5,7.9553527000243776,7.974557900044601,7.974557900044601,0.034729399951174855,8.983582600019872,9.807235300017055,[0.21223958333333334],[-0.4440104166666667],[1],[0],[0],[1.851178799988702],['target'],683392,001,2024-10-10_16h17.04.585,script,2024.2.1post4,59.89279190889549,2024-10-10 16h17.13.563138 +0530,
6,0,6,[-0.0234375],[0.109375],[1],[0],[0],[0.9912404000060633],['target'],6,0,6,0,9.908331400016323,,10,9.877535900042858,9.908331400016323,9.908331400016323,0.07004080002661794,,10.86948700004723,[-0.0234375],[0.109375],[1],[0],[0],[0.9912404000060633],['target'],683392,001,2024-10-10_16h17.04.585,script,2024.2.1post4,59.89279190889549,2024-10-10 16h17.13.563138 +0530,
7,0,7,[-0.1875],[0.22395833333333334],[1],[0],[0],[1.575990199984517],['target'],7,0,7,0,10.92700429999968,,5,10.9094665000448,10.92700429999968,10.92700429999968,0.03965550003340468,11.933308500039857,12.486173200013582,[-0.1875],[0.22395833333333334],[1],[0],[0],[1.575990199984517],['target'],683392,001,2024-10-10_16h17.04.585,script,2024.2.1post4,59.89279190889549,2024-10-10 16h17.13.563138 +0530,
8,0,8,[0.10416666666666667],[0.2838541666666667],[1],[0],[0],[1.741752700007055],['target'],8,0,8,0,12.547286400047597,,5,12.526074499997776,12.547286400047597,12.547286400047597,0.03966519999084994,13.554604500008281,14.26843470003223,[0.10416666666666667],[0.2838541666666667],[1],[0],[0],[1.741752700007055],['target'],683392,001,2024-10-10_16h17.04.585,script,2024.2.1post4,59.89279190889549,2024-10-10 16h17.13.563138 +0530,
9,0,9,[-0.01953125],[-0.390625],[1],[0],[0],[1.5326960000093095],['target'],9,0,9,0,14.384814900055062,,10,14.351699899998493,14.384814900055062,14.384814900055062,0.08301300002494827,15.399122500035446,15.885446100030094,[-0.01953125],[-0.390625],[1],[0],[0],[1.5326960000093095],['target'],683392,001,2024-10-10_16h17.04.585,script,2024.2.1post4,59.89279190889549,2024-10-10 16h17.13.563138 +0530,
10,0,10,[0.3763020833333333],[-0.2591145833333333],[1],[0],[0],[1.5203052000142634],['target'],10,0,10,0,15.96337490004953,,5,15.947895000048447,15.96337490004953,15.96337490004953,0.06212690001120791,16.966068000008818,17.468849800003227,[0.3763020833333333],[-0.2591145833333333],[1],[0],[0],[1.5203052000142634],['target'],683392,001,2024-10-10_16h17.04.585,script,2024.2.1post4,59.89279190889549,2024-10-10 16h17.13.563138 +0530,
11,0,11,[-0.15625],[0.27734375],[1],[0],[0],[1.6290154000162147],['target'],11,0,11,0,17.522370200022124,,5,17.505532400042284,17.522370200022124,17.522370200022124,0.036476300039794296,18.53238180000335,19.134963500022423,[-0.15625],[0.27734375],[1],[0],[0],[1.6290154000162147],['target'],683392,001,2024-10-10_16h17.04.585,script,2024.2.1post4,59.89279190889549,2024-10-10 16h17.13.563138 +0530,
12,0,12,[0.29296875],[0.19661458333333334],[1],[0],[0],[2.1002070999820717],['target'],12,0,12,0,19.183598900039215,,5,19.16809730004752,19.183598900039215,19.183598900039215,0.03289410000434145,20.19921550003346,21.26868140004808,[0.29296875],[0.19661458333333334],[1],[0],[0],[2.1002070999820717],['target'],683392,001,2024-10-10_16h17.04.585,script,2024.2.1post4,59.89279190889549,2024-10-10 16h17.13.563138 +0530,
13,0,13,[-0.3763020833333333],[0.22395833333333334],[1],[0],[0],[1.6892320000333712],['target'],13,0,13,0,21.328115200041793,,5,21.311285600007977,21.328115200041793,21.328115200041793,0.04239960003178567,22.332309200020973,23.00090820004698,[-0.3763020833333333],[0.22395833333333334],[1],[0],[0],[1.6892320000333712],['target'],683392,001,2024-10-10_16h17.04.585,script,2024.2.1post4,59.89279190889549,2024-10-10 16h17.13.563138 +0530,
14,0,14,[0.3606770833333333],[-0.07291666666666667],[1],[0],[0],[2.021180399984587],['target'],14,0,14,0,23.045672800042666,,5,23.029376700054854,23.045672800042666,23.045672800042666,0.028256200021132827,24.048822300042957,25.050973700010218,[0.3606770833333333],[-0.07291666666666667],[1],[0],[0],[2.021180399984587],['target'],683392,001,2024-10-10_16h17.04.585,script,2024.2.1post4,59.89279190889549,2024-10-10 16h17.13.563138 +0530,
15,0,15,[0.3307291666666667],[0.23046875],[1],[0],[0],[1.6476640999899246],['target'],15,0,15,0,25.14627880003536,,10,25.12017290003132,25.14627880003536,25.14627880003536,0.06899429997429252,26.149083800031804,26.76834550005151,[0.3307291666666667],[0.23046875],[1],[0],[0],[1.6476640999899246],['target'],683392,001,2024-10-10_16h17.04.585,script,2024.2.1post4,59.89279190889549,2024-10-10 16h17.13.563138 +0530,
16,0,16,[0.0703125],[0.4778645833333333],[1],[0],[0],[1.448883000004571],['target'],16,0,16,0,26.81900100002531,,5,26.80190900003072,26.81900100002531,26.81900100002531,0.03323709999676794,27.832433600036893,28.25139750004746,[0.0703125],[0.4778645833333333],[1],[0],[0],[1.448883000004571],['target'],683392,001,2024-10-10_16h17.04.585,script,2024.2.1post4,59.89279190889549,2024-10-10 16h17.13.563138 +0530,
17,0,17,[-0.22786458333333334],[-0.3346354166666667],[1],[0],[0],[1.795275299984496],['target'],17,0,17,0,28.347558500012383,,10,28.32197080005426,28.347558500012383,28.347558500012383,0.07036849996075034,29.3485367000103,30.117867200053297,[-0.22786458333333334],[-0.3346354166666667],[1],[0],[0],[1.795275299984496],['target'],683392,001,2024-10-10_16h17.04.585,script,2024.2.1post4,59.89279190889549,2024-10-10 16h17.13.563138 +0530,
18,0,18,[0.109375],[0.2877604166666667],[1],[0],[0],[1.1356479999958538],['target'],18,0,18,0,30.165215700049885,,5,30.149400900001638,30.165215700049885,30.165215700049885,0.031229700020048767,31.16544910002267,31.285728400049265,[0.109375],[0.2877604166666667],[1],[0],[0],[1.1356479999958538],['target'],683392,001,2024-10-10_16h17.04.585,script,2024.2.1post4,59.89279190889549,2024-10-10 16h17.13.563138 +0530,
19,0,19,[-0.23828125],[-0.4557291666666667],[1],[0],[0],[1.6988717999774963],[None],19,0,19,0,31.33641190000344,,5,31.31881660001818,31.33641190000344,31.33641190000344,0.03279629995813593,32.34837340004742,33.01827970001614,[-0.23828125],[-0.4557291666666667],[1],[0],[0],[1.6988717999774963],[None],683392,001,2024-10-10_16h17.04.585,script,2024.2.1post4,59.89279190889549,2024-10-10 16h17.13.563138 +0530,
20,0,20,[0.15234375],[0.16927083333333334],[1],[0],[0],[1.0939332999987528],['target'],20,0,20,0,33.1175016000052,,10,33.09056100004818,33.1175016000052,33.1175016000052,0.07206589996349066,34.1317895000102,34.18505060003372,[0.15234375],[0.16927083333333334],[1],[0],[0],[1.0939332999987528],['target'],683392,001,2024-10-10_16h17.04.585,script,2024.2.1post4,59.89279190889549,2024-10-10 16h17.13.563138 +0530,
21,0,21,[-0.22265625],[-0.11067708333333333],[1],[0],[0],[1.5167254999978468],['target'],21,0,21,0,34.23235200002091,,5,34.216967400047,34.23235200002091,34.23235200002091,0.031621000031009316,35.23185820004437,35.73431220004568,[-0.22265625],[-0.11067708333333333],[1],[0],[0],[1.5167254999978468],['target'],683392,001,2024-10-10_16h17.04.585,script,2024.2.1post4,59.89279190889549,2024-10-10 16h17.13.563138 +0530,
22,0,22,[-0.2604166666666667],[-0.22395833333333334],[1],[0],[0],[1.1042961000348441],['target'],22,0,22,0,35.778877300035674,,5,35.762716600031126,35.778877300035674,35.778877300035674,0.02820090000750497,36.78154100000393,36.86744810000528,[-0.2604166666666667],[-0.22395833333333334],[1],[0],[0],[1.1042961000348441],['target'],683392,001,2024-10-10_16h17.04.585,script,2024.2.1post4,59.89279190889549,2024-10-10 16h17.13.563138 +0530,
23,0,23,[0.0],[0.4244791666666667],[1],[0],[0],[1.437143900024239],['target'],23,0,23,0,36.912381700007245,,5,36.896502000046894,36.912381700007245,36.912381700007245,0.02885110001079738,37.91578820004361,38.33422400004929,[0.0],[0.4244791666666667],[1],[0],[0],[1.437143900024239],['target'],683392,001,2024-10-10_16h17.04.585,script,2024.2.1post4,59.89279190889549,2024-10-10 16h17.13.563138 +0530,
24,0,24,[0.046875],[0.020833333333333332],[1],[0],[0],[1.6581448999932036],['target'],24,0,24,0,38.394494400010444,,5,38.375225400028285,38.394494400010444,38.394494400010444,0.040770100022200495,39.39922860002844,40.03395570005523,[0.046875],[0.020833333333333332],[1],[0],[0],[1.6581448999932036],['target'],683392,001,2024-10-10_16h17.04.585,script,2024.2.1post4,59.89279190889549,2024-10-10 16h17.13.563138 +0530,
25,0,25,[-0.1328125],[-0.3802083333333333],[1],[0],[0],[1.6337207999895327],['target'],25,0,25,0,40.12768890004372,,10,40.09988740005065,40.12768890004372,40.12768890004372,0.06570679997093976,41.13118210004177,41.734049000020605,[-0.1328125],[-0.3802083333333333],[1],[0],[0],[1.6337207999895327],['target'],683392,001,2024-10-10_16h17.04.585,script,2024.2.1post4,59.89279190889549,2024-10-10 16h17.13.563138 +0530,
26,0,26,[-0.23697916666666666],[0.4244791666666667],[1],[0],[0],[1.2087122999946587],['target'],26,0,26,0,41.838583200005814,,10,41.80816870002309,41.838583200005814,41.838583200005814,0.07377769995946437,42.84775980003178,43.01812860002974,[-0.23697916666666666],[0.4244791666666667],[1],[0],[0],[1.2087122999946587],['target'],683392,001,2024-10-10_16h17.04.585,script,2024.2.1post4,59.89279190889549,2024-10-10 16h17.13.563138 +0530,
27,0,27,[-0.2578125],[0.17317708333333334],[1],[0],[0],[1.3409607000066899],['target'],27,0,27,0,43.078278700006194,,5,43.05938180000521,43.078278700006194,43.078278700006194,0.040935900004114956,44.081193000019994,44.40081400005147,[-0.2578125],[0.17317708333333334],[1],[0],[0],[1.3409607000066899],['target'],683392,001,2024-10-10_16h17.04.585,script,2024.2.1post4,59.89279190889549,2024-10-10 16h17.13.563138 +0530,
28,0,28,[-0.2942708333333333],[0.1171875],[1],[0],[0],[1.0085811999742873],['target'],28,0,28,0,44.50147400004789,,10,44.47446920000948,44.50147400004789,44.50147400004789,0.07345000002533197,,45.483435400004964,[-0.2942708333333333],[0.1171875],[1],[0],[0],[1.0085811999742873],['target'],683392,001,2024-10-10_16h17.04.585,script,2024.2.1post4,59.89279190889549,2024-10-10 16h17.13.563138 +0530,
29,0,29,[-0.4296875],[-0.3229166666666667],[1],[0],[0],[1.204540900012944],['target'],29,0,29,0,45.54303890001029,,5,45.52849910000805,45.54303890001029,45.54303890001029,0.044765800004824996,46.547611900023185,46.73348920000717,[-0.4296875],[-0.3229166666666667],[1],[0],[0],[1.204540900012944],['target'],683392,001,2024-10-10_16h17.04.585,script,2024.2.1post4,59.89279190889549,2024-10-10 16h17.13.563138 +0530,
30,0,30,[0.3046875],[0.1484375],[1],[0],[0],[1.7359624999808148],['target'],30,0,30,0,46.78009330003988,,5,46.76372840005206,46.78009330003988,46.78009330003988,0.030032899987418205,47.78124870004831,48.50028180005029,[0.3046875],[0.1484375],[1],[0],[0],[1.7359624999808148],['target'],683392,001,2024-10-10_16h17.04.585,script,2024.2.1post4,59.89279190889549,2024-10-10 16h17.13.563138 +0530,
31,0,31,[0.0390625],[0.109375],[1],[0],[0],[1.188696799974423],['target'],31,0,31,0,48.591579800006,,10,48.56108250003308,48.591579800006,48.591579800006,0.06057139998301864,49.59752240002854,49.75035630003549,[0.0390625],[0.109375],[1],[0],[0],[1.188696799974423],['target'],683392,001,2024-10-10_16h17.04.585,script,2024.2.1post4,59.89279190889549,2024-10-10 16h17.13.563138 +0530,
32,0,32,[-0.2265625],[-0.17447916666666666],[1],[0],[0],[1.2694550000014715],[None],32,0,32,0,49.843975500029046,,10,49.81365710002137,49.843975500029046,49.843975500029046,0.06301490002078936,50.847453200025484,51.08376120001776,[-0.2265625],[-0.17447916666666666],[1],[0],[0],[1.2694550000014715],[None],683392,001,2024-10-10_16h17.04.585,script,2024.2.1post4,59.89279190889549,2024-10-10 16h17.13.563138 +0530,
33,0,33,[-0.22265625],[-0.296875],[1],[0],[0],[1.7008058999781497],['target'],33,0,33,0,51.176411500026006,,10,51.14939490001416,51.176411500026006,51.176411500026006,0.06534349999856204,52.18165140005294,52.85089830000652,[-0.22265625],[-0.296875],[1],[0],[0],[1.7008058999781497],['target'],683392,001,2024-10-10_16h17.04.585,script,2024.2.1post4,59.89279190889549,2024-10-10 16h17.13.563138 +0530,
34,0,34,[0.1015625],[0.4973958333333333],[1],[0],[0],[2.643325300014112],['target'],34,0,34,0,52.95361310004955,,10,52.923458500008564,52.95361310004955,52.95361310004955,0.07225299999117851,53.964145600039046,55.567567600053735,[0.1015625],[0.4973958333333333],[1],[0],[0],[2.643325300014112],['target'],683392,001,2024-10-10_16h17.04.585,script,2024.2.1post4,59.89279190889549,2024-10-10 16h17.13.563138 +0530,
35,0,35,[0.26953125],[0.2265625],[1],[0],[0],[1.588019099959638],['target'],35,0,35,0,55.62786520004738,,5,55.61194490001071,55.62786520004738,55.62786520004738,0.04405859997496009,56.63046800001757,57.20055600005435,[0.26953125],[0.2265625],[1],[0],[0],[1.588019099959638],['target'],683392,001,2024-10-10_16h17.04.585,script,2024.2.1post4,59.89279190889549,2024-10-10 16h17.13.563138 +0530,
36,0,36,[0.125],[0.09375],[1],[0],[0],[1.1923113000229932],['target'],36,0,36,0,57.29983270005323,,10,57.27391860005446,57.29983270005323,57.29983270005323,0.07315240002935752,58.313646399998106,58.466680100013036,[0.125],[0.09375],[1],[0],[0],[1.1923113000229932],['target'],683392,001,2024-10-10_16h17.04.585,script,2024.2.1post4,59.89279190889549,2024-10-10 16h17.13.563138 +0530,
37,0,37,[-0.02734375],[0.2760416666666667],[1],[0],[0],[1.3591901000472717],['target'],37,0,37,0,58.56675170001108,,10,58.540563600021414,58.56675170001108,58.56675170001108,0.07358389999717474,59.580371500051115,59.90041050000582,[-0.02734375],[0.2760416666666667],[1],[0],[0],[1.3591901000472717],['target'],683392,001,2024-10-10_16h17.04.585,script,2024.2.1post4,59.89279190889549,2024-10-10 16h17.13.563138 +0530,
38,0,38,[-0.3619791666666667],[0.16796875],[1],[0],[0],[1.6500090999761596],['target'],38,0,38,0,59.95035270001972,,5,59.93317460000981,59.95035270001972,59.95035270001972,0.03247089998330921,60.96498990000691,61.583739800029434,[-0.3619791666666667],[0.16796875],[1],[0],[0],[1.6500090999761596],['target'],683392,001,2024-10-10_16h17.04.585,script,2024.2.1post4,59.89279190889549,2024-10-10 16h17.13.563138 +0530,
39,0,39,[-0.23697916666666666],[-0.08333333333333333],[1],[0],[0],[1.249434099998325],['target'],39,0,39,0,61.6278358999989,,5,61.610857899999246,61.6278358999989,61.6278358999989,0.02689570002257824,62.63143340003444,62.879985000006855,[-0.23697916666666666],[-0.08333333333333333],[1],[0],[0],[1.249434099998325],['target'],683392,001,2024-10-10_16h17.04.585,script,2024.2.1post4,59.89279190889549,2024-10-10 16h17.13.563138 +0530,
40,0,40,[0.2591145833333333],[0.28125],[1],[0],[0],[1.9198791999951936],['target'],40,0,40,0,62.93223480001325,,5,62.912331100029405,62.93223480001325,62.93223480001325,0.03207119996659458,63.94723270001123,64.83262390003074,[0.2591145833333333],[0.28125],[1],[0],[0],[1.9198791999951936],['target'],683392,001,2024-10-10_16h17.04.585,script,2024.2.1post4,59.89279190889549,2024-10-10 16h17.13.563138 +0530,
41,0,41,[-0.07161458333333333],[-0.24869791666666666],[1],[0],[0],[1.5240678999689408],['target'],41,0,41,0,64.89416450000135,,5,64.87437100004172,64.89416450000135,64.89416450000135,0.04152650001924485,65.89678790001199,66.3988181000459,[-0.07161458333333333],[-0.24869791666666666],[1],[0],[0],[1.5240678999689408],['target'],683392,001,2024-10-10_16h17.04.585,script,2024.2.1post4,59.89279190889549,2024-10-10 16h17.13.563138 +0530,
42,0,42,[-0.08854166666666667],[-0.2604166666666667],[1],[0],[0],[1.5934948999783956],[None],42,0,42,0,66.5002740000491,,10,66.47198500001105,66.5002740000491,66.5002740000491,0.07295679999515414,67.51340960001107,68.06611030001659,[-0.08854166666666667],[-0.2604166666666667],[1],[0],[0],[1.5934948999783956],[None],683392,001,2024-10-10_16h17.04.585,script,2024.2.1post4,59.89279190889549,2024-10-10 16h17.13.563138 +0530,
43,0,43,[-0.3880208333333333],[-0.11588541666666667],[1],[0],[0],[2.034693200024776],[None],43,0,43,0,68.15972940000938,,10,68.13096280000173,68.15972940000938,68.15972940000938,0.06451809999998659,69.16318540001521,70.16634170000907,[-0.3880208333333333],[-0.11588541666666667],[1],[0],[0],[2.034693200024776],[None],683392,001,2024-10-10_16h17.04.585,script,2024.2.1post4,59.89279190889549,2024-10-10 16h17.13.563138 +0530,
44,0,44,[0.4153645833333333],[0.19010416666666666],[1],[0],[0],[1.9882943000411615],['target'],44,0,44,0,70.25340220000362,,10,70.22719770000549,70.25340220000362,70.25340220000362,0.06055370002286509,71.26306530000875,72.21604650001973,[0.4153645833333333],[0.19010416666666666],[1],[0],[0],[1.9882943000411615],['target'],683392,001,2024-10-10_16h17.04.585,script,2024.2.1post4,59.89279190889549,2024-10-10 16h17.13.563138 +0530,
45,0,45,[-0.39453125],[-0.4544270833333333],[1],[0],[0],[2.000904900021851],['target'],45,0,45,0,72.26331430004211,,5,72.2474601000431,72.26331430004211,72.26331430004211,0.031103799992706627,73.26380970003083,74.24899320001714,[-0.39453125],[-0.4544270833333333],[1],[0],[0],[2.000904900021851],['target'],683392,001,2024-10-10_16h17.04.585,script,2024.2.1post4,59.89279190889549,2024-10-10 16h17.13.563138 +0530,
46,0,46,[-0.12109375],[0.21614583333333334],[1],[0],[0],[1.373189400008414],['target'],46,0,46,0,74.31022300000768,,5,74.2919468000182,74.31022300000768,74.31022300000768,0.04274159995839,75.3129889999982,75.66557880002074,[-0.12109375],[0.21614583333333334],[1],[0],[0],[1.373189400008414],['target'],683392,001,2024-10-10_16h17.04.585,script,2024.2.1post4,59.89279190889549,2024-10-10 16h17.13.563138 +0530,
47,0,47,[0.4609375],[0.19661458333333334],[1],[0],[0],[1.6698023999924771],['target'],47,0,47,0,75.77834330004407,,10,75.74510870000813,75.77834330004407,75.77834330004407,0.07930240000132471,76.7795269000344,77.4153753000428,[0.4609375],[0.19661458333333334],[1],[0],[0],[1.6698023999924771],['target'],683392,001,2024-10-10_16h17.04.585,script,2024.2.1post4,59.89279190889549,2024-10-10 16h17.13.563138 +0530,
48,0,48,[-0.3932291666666667],[0.2565104166666667],[1],[0],[0],[2.1701727000181563],['target'],48,0,48,0,77.5075595000526,,10,77.4791860000114,77.5075595000526,77.5075595000526,0.06341829994926229,78.5127322000335,79.65003470005468,[-0.3932291666666667],[0.2565104166666667],[1],[0],[0],[2.1701727000181563],['target'],683392,001,2024-10-10_16h17.04.585,script,2024.2.1post4,59.89279190889549,2024-10-10 16h17.13.563138 +0530,
49,0,49,[-0.11848958333333333],[-0.23567708333333334],[1],[0],[0],[1.8940839000279084],['target'],49,0,49,0,79.74863310001092,,10,79.72134490002645,79.74863310001092,79.74863310001092,0.07094740000320598,80.7626965000527,81.6162129000295,[-0.11848958333333333],[-0.23567708333333334],[1],[0],[0],[1.8940839000279084],['target'],683392,001,2024-10-10_16h17.04.585,script,2024.2.1post4,59.89279190889549,2024-10-10 16h17.13.563138 +0530,
50,0,50,[-0.390625],[0.00390625],[1],[0],[0],[1.1548682000138797],[None],50,0,50,0,81.7295526000089,,10,81.69387110002572,81.7295526000089,81.7295526000089,0.07735999999567866,82.72980570001528,82.8494619000121,[-0.390625],[0.00390625],[1],[0],[0],[1.1548682000138797],[None],683392,001,2024-10-10_16h17.04.585,script,2024.2.1post4,59.89279190889549,2024-10-10 16h17.13.563138 +0530,
51,0,51,[0.4518229166666667],[0.4557291666666667],[1],[0],[0],[4.198679900029674],['target'],51,0,51,0,82.94668930000626,,10,82.91650690004462,82.94668930000626,82.94668930000626,0.06674400001065806,83.94597550004255,87.11592589999782,[0.4518229166666667],[0.4557291666666667],[1],[0],[0],[4.198679900029674],['target'],683392,001,2024-10-10_16h17.04.585,script,2024.2.1post4,59.89279190889549,2024-10-10 16h17.13.563138 +0530,
52,0,52,[0.07942708333333333],[-0.2760416666666667],[1],[0],[0],[1.0727772999671288],[None],52,0,52,0,87.22141320002265,,10,87.19174110004678,87.22141320002265,87.22141320002265,0.07536809996236116,88.2290463000536,88.26514440000756,[0.07942708333333333],[-0.2760416666666667],[1],[0],[0],[1.0727772999671288],[None],683392,001,2024-10-10_16h17.04.585,script,2024.2.1post4,59.89279190889549,2024-10-10 16h17.13.563138 +0530,
53,0,53,[-0.33984375],[-0.4622395833333333],[1],[0],[0],[1.384126599994488],['target'],53,0,53,0,88.31567890004953,,5,88.29777670005569,88.31567890004953,88.31567890004953,0.03220290003810078,89.32935130002443,89.68251500005135,[-0.33984375],[-0.4622395833333333],[1],[0],[0],[1.384126599994488],['target'],683392,001,2024-10-10_16h17.04.585,script,2024.2.1post4,59.89279190889549,2024-10-10 16h17.13.563138 +0530,
54,0,54,[-0.3619791666666667],[-0.024739583333333332],[1],[0],[0],[0.9206315000192262],['target'],54,0,54,0,89.74329340003897,,5,89.72696620004717,89.74329340003897,89.74329340003897,0.04429450002498925,,90.6482088000048,[-0.3619791666666667],[-0.024739583333333332],[1],[0],[0],[0.9206315000192262],['target'],683392,001,2024-10-10_16h17.04.585,script,2024.2.1post4,59.89279190889549,2024-10-10 16h17.13.563138 +0530,
55,0,55,[-0.13671875],[-0.09375],[1],[0],[0],[0.9683691000100225],['target'],55,0,55,0,90.74724799999967,,10,90.71322830003919,90.74724799999967,90.74724799999967,0.06465110002318397,,91.68212440004572,[-0.13671875],[-0.09375],[1],[0],[0],[0.9683691000100225],['target'],683392,001,2024-10-10_16h17.04.585,script,2024.2.1post4,59.89279190889549,2024-10-10 16h17.13.563138 +0530,
56,0,56,[0.059895833333333336],[-0.26171875],[1],[0],[0],[0.9405914000235498],['target'],56,0,56,0,91.78705680003623,,10,91.75727380003082,91.78705680003623,91.78705680003623,0.07482839998556301,,92.69849310000427,[0.059895833333333336],[-0.26171875],[1],[0],[0],[0.9405914000235498],['target'],683392,001,2024-10-10_16h17.04.585,script,2024.2.1post4,59.89279190889549,2024-10-10 16h17.13.563138 +0530,
57,0,57,[-0.2890625],[-0.2903645833333333],[1],[0],[0],[0.8827726999879815],['target'],57,0,57,0,92.7483408000553,,5,92.73123940004734,92.7483408000553,92.7483408000553,0.03246159997070208,,93.61472000001231,[-0.2890625],[-0.2903645833333333],[1],[0],[0],[0.8827726999879815],['target'],683392,001,2024-10-10_16h17.04.585,script,2024.2.1post4,59.89279190889549,2024-10-10 16h17.13.563138 +0530,
58,0,58,[0.0026041666666666665],[0.3033854166666667],[1],[0],[0],[1.6614475999958813],['target'],58,0,58,0,93.71476840000832,,10,93.68595740001183,93.71476840000832,93.71476840000832,0.07100299996091053,94.72893080004724,95.34799100004602,[0.0026041666666666665],[0.3033854166666667],[1],[0],[0],[1.6614475999958813],['target'],683392,001,2024-10-10_16h17.04.585,script,2024.2.1post4,59.89279190889549,2024-10-10 16h17.13.563138 +0530,
59,0,59,[-0.25390625],[-0.13411458333333334],[1],[0],[0],[0.9677676999708638],['target'],59,0,59,0,95.39665120001882,,5,95.38000020000618,95.39665120001882,95.39665120001882,0.031717500009108335,,96.34854330000235,[-0.25390625],[-0.13411458333333334],[1],[0],[0],[0.9677676999708638],['target'],683392,001,2024-10-10_16h17.04.585,script,2024.2.1post4,59.89279190889549,2024-10-10 16h17.13.563138 +0530,
60,0,60,[0.1171875],[-0.21223958333333334],[1],[0],[0],[0.9314442999893799],['target'],60,0,60,0,96.44672450004146,,10,96.41646730003413,96.44672450004146,96.44672450004146,0.06769629998598248,,97.34851720003644,[0.1171875],[-0.21223958333333334],[1],[0],[0],[0.9314442999893799],['target'],683392,001,2024-10-10_16h17.04.585,script,2024.2.1post4,59.89279190889549,2024-10-10 16h17.13.563138 +0530,
61,0,61,[-0.24348958333333334],[-0.4348958333333333],[1],[0],[0],[1.5516394999576733],['target'],61,0,61,0,97.44893640000373,,10,97.41263550001895,97.44893640000373,97.44893640000373,0.0638215999933891,98.46183750004275,98.9649959000526,[-0.24348958333333334],[-0.4348958333333333],[1],[0],[0],[1.5516394999576733],['target'],683392,001,2024-10-10_16h17.04.585,script,2024.2.1post4,59.89279190889549,2024-10-10 16h17.13.563138 +0530,
62,0,62,[-0.08854166666666667],[0.4479166666666667],[1],[0],[0],[0.9521403000107966],['target'],62,0,62,0,99.0167629000498,,5,98.99645140004577,99.0167629000498,99.0167629000498,0.03116119996411726,,99.94940950005548,[-0.08854166666666667],[0.4479166666666667],[1],[0],[0],[0.9521403000107966],['target'],683392,001,2024-10-10_16h17.04.585,script,2024.2.1post4,59.89279190889549,2024-10-10 16h17.13.563138 +0530,
63,0,63,[0.07421875],[-0.3111979166666667],[1],[0],[0],[1.4988942999625579],['target'],63,0,63,0,100.00088990002405,,5,99.98256540001603,100.00088990002405,100.00088990002405,0.03290789999300614,101.01712720002979,101.4827176000108,[0.07421875],[-0.3111979166666667],[1],[0],[0],[1.4988942999625579],['target'],683392,001,2024-10-10_16h17.04.585,script,2024.2.1post4,59.89279190889549,2024-10-10 16h17.13.563138 +0530,
64,0,64,[0.4752604166666667],[0.009114583333333334],[1],[0],[0],[1.8465023000026122],['target'],64,0,64,0,101.58469850005349,,10,101.55051080003614,101.58469850005349,101.58469850005349,0.06754519999958575,102.59632470004726,103.39796000003116,[0.4752604166666667],[0.009114583333333334],[1],[0],[0],[1.8465023000026122],['target'],683392,001,2024-10-10_16h17.04.585,script,2024.2.1post4,59.89279190889549,2024-10-10 16h17.13.563138 +0530,
65,0,65,[-0.3372395833333333],[-0.09895833333333333],[1],[0],[0],[3.1163673999835737],['target'],65,0,65,0,103.49427320004907,,10,103.46404280001298,103.49427320004907,103.49427320004907,0.06579530000453815,104.49508140003309,106.58109400002286,[-0.3372395833333333],[-0.09895833333333333],[1],[0],[0],[3.1163673999835737],['target'],683392,001,2024-10-10_16h17.04.585,script,2024.2.1post4,59.89279190889549,2024-10-10 16h17.13.563138 +0530,
66,0,66,[0.4895833333333333],[-0.15625],[1],[0],[0],[1.6495118999737315],['target'],66,0,66,0,106.63087330001872,,5,106.61414489999879,106.63087330001872,106.63087330001872,0.032750000013038516,107.64494700002251,108.26408210000955,[0.4895833333333333],[-0.15625],[1],[0],[0],[1.6495118999737315],['target'],683392,001,2024-10-10_16h17.04.585,script,2024.2.1post4,59.89279190889549,2024-10-10 16h17.13.563138 +0530,
67,0,67,[0.2526041666666667],[0.033854166666666664],[1],[0],[0],[1.972460900025908],['target'],67,0,67,0,108.30873520002933,,5,108.29113500000676,108.30873520002933,108.30873520002933,0.026848899957258254,109.31176760001108,110.26426600001287,[0.2526041666666667],[0.033854166666666664],[1],[0],[0],[1.972460900025908],['target'],683392,001,2024-10-10_16h17.04.585,script,2024.2.1post4,59.89279190889549,2024-10-10 16h17.13.563138 +0530,
68,0,68,[0.2825520833333333],[0.2981770833333333],[1],[0],[0],[1.3561075000325218],['target'],68,0,68,0,110.32827630004613,,5,110.30762000003597,110.32827630004613,110.32827630004613,0.04312620003474876,111.32801700005075,111.6641831000452,[0.2825520833333333],[0.2981770833333333],[1],[0],[0],[1.3561075000325218],['target'],683392,001,2024-10-10_16h17.04.585,script,2024.2.1post4,59.89279190889549,2024-10-10 16h17.13.563138 +0530,
69,0,69,[-0.2916666666666667],[-0.30859375],[1],[0],[0],[0.8878161999746226],['target'],69,0,69,0,111.70814590004738,,5,111.69198650005274,111.70814590004738,111.70814590004738,0.027601299982052296,,112.58044650004013,[-0.2916666666666667],[-0.30859375],[1],[0],[0],[0.8878161999746226],['target'],683392,001,2024-10-10_16h17.04.585,script,2024.2.1post4,59.89279190889549,2024-10-10 16h17.13.563138 +0530,
70,0,70,[-0.22395833333333334],[-0.3190104166666667],[1],[0],[0],[1.0186585999908857],['target'],70,0,70,0,112.684988300025,,10,112.64560780004831,112.684988300025,112.684988300025,0.0649202999775298,,113.66496620001271,[-0.22395833333333334],[-0.3190104166666667],[1],[0],[0],[1.0186585999908857],['target'],683392,001,2024-10-10_16h17.04.585,script,2024.2.1post4,59.89279190889549,2024-10-10 16h17.13.563138 +0530,
71,0,71,[0.3671875],[0.30078125],[1],[0],[0],[2.824539499997627],['target'],71,0,71,0,113.76824340003077,,10,113.73928040004103,113.76824340003077,113.76824340003077,0.07398689998080954,114.7777805000078,116.56452120002359,[0.3671875],[0.30078125],[1],[0],[0],[2.824539499997627],['target'],683392,001,2024-10-10_16h17.04.585,script,2024.2.1post4,59.89279190889549,2024-10-10 16h17.13.563138 +0530,
72,0,72,[0.31640625],[-0.3359375],[1],[0],[0],[0.9694832999957725],['target'],72,0,72,0,116.6099450000329,,5,116.59417620004388,116.6099450000329,116.6099450000329,0.02935480000451207,,117.56442170002265,[0.31640625],[-0.3359375],[1],[0],[0],[0.9694832999957725],['target'],683392,001,2024-10-10_16h17.04.585,script,2024.2.1post4,59.89279190889549,2024-10-10 16h17.13.563138 +0530,
73,0,73,[-0.16145833333333334],[-0.17057291666666666],[1],[0],[0],[1.0741449999623],['target'],73,0,73,0,117.67588590004016,,10,117.63980140001513,117.67588590004016,117.67588590004016,0.07515869999770075,118.68440200004261,118.72049690003041,[-0.16145833333333334],[-0.17057291666666666],[1],[0],[0],[1.0741449999623],['target'],683392,001,2024-10-10_16h17.04.585,script,2024.2.1post4,59.89279190889549,2024-10-10 16h17.13.563138 +0530,
74,0,74,[-0.3684895833333333],[-0.3268229166666667],[1],[0],[0],[1.3617064999998547],['target'],74,0,74,0,118.77648250001948,,5,118.75485250004567,118.77648250001948,118.77648250001948,0.03400440001860261,119.80235890002223,120.11715940001886,[-0.3684895833333333],[-0.3268229166666667],[1],[0],[0],[1.3617064999998547],['target'],683392,001,2024-10-10_16h17.04.585,script,2024.2.1post4,59.89279190889549,2024-10-10 16h17.13.563138 +0530,
75,0,75,[-0.049479166666666664],[-0.028645833333333332],[1],[0],[0],[1.2190108999493532],['target'],75,0,75,0,120.22464040003251,,10,120.18899010005407,120.22464040003251,120.22464040003251,0.07158849999541417,121.22752480005147,121.40885400003754,[-0.049479166666666664],[-0.028645833333333332],[1],[0],[0],[1.2190108999493532],['target'],683392,001,2024-10-10_16h17.04.585,script,2024.2.1post4,59.89279190889549,2024-10-10 16h17.13.563138 +0530,
76,0,76,[0.21223958333333334],[0.4309895833333333],[1],[0],[0],[1.5914584000129253],['target'],76,0,76,0,121.50391880003735,,10,121.47174330003327,121.50391880003735,121.50391880003735,0.06260359997395426,122.51183780003339,123.0638151000021,[0.21223958333333334],[0.4309895833333333],[1],[0],[0],[1.5914584000129253],['target'],683392,001,2024-10-10_16h17.04.585,script,2024.2.1post4,59.89279190889549,2024-10-10 16h17.13.563138 +0530,
77,0,77,[0.30078125],[0.24088541666666666],[1],[0],[0],[1.5859660999849439],['target'],77,0,77,0,123.1736667000223,,10,123.14415380003629,123.1736667000223,123.1736667000223,0.08006459998432547,124.17732880002586,124.73073050001403,[0.30078125],[0.24088541666666666],[1],[0],[0],[1.5859660999849439],['target'],683392,001,2024-10-10_16h17.04.585,script,2024.2.1post4,59.89279190889549,2024-10-10 16h17.13.563138 +0530,
78,0,78,[0.3502604166666667],[0.2734375],[1],[0],[0],[1.352687300008256],['target'],78,0,78,0,124.8259786000126,,10,124.79416119999951,124.8259786000126,124.8259786000126,0.06310520000988618,125.82743600005051,126.14765370002715,[0.3502604166666667],[0.2734375],[1],[0],[0],[1.352687300008256],['target'],683392,001,2024-10-10_16h17.04.585,script,2024.2.1post4,59.89279190889549,2024-10-10 16h17.13.563138 +0530,
79,0,79,[0.24869791666666666],[0.028645833333333332],[1],[0],[0],[1.081808999995701],['target'],79,0,79,0,126.19858170003863,,5,126.18114350002725,126.19858170003863,126.19858170003863,0.033182899991516024,127.21034810005222,127.26359800004866,[0.24869791666666666],[0.028645833333333332],[1],[0],[0],[1.081808999995701],['target'],683392,001,2024-10-10_16h17.04.585,script,2024.2.1post4,59.89279190889549,2024-10-10 16h17.13.563138 +0530,
80,0,80,[0.19010416666666666],[0.5],[1],[0],[0],[2.0996705000288785],['target'],80,0,80,0,127.32644620002247,,5,127.29638950002845,127.32644620002247,127.32644620002247,0.03257610002765432,128.3271856000065,129.39663100003963,[0.19010416666666666],[0.5],[1],[0],[0],[2.0996705000288785],['target'],683392,001,2024-10-10_16h17.04.585,script,2024.2.1post4,59.89279190889549,2024-10-10 16h17.13.563138 +0530,
81,0,81,[-0.12239583333333333],[-0.4127604166666667],[1],[0],[0],[1.6166493000346236],['target'],81,0,81,0,129.5043456000276,,10,129.46286740002688,129.5043456000276,129.5043456000276,0.06600649998290464,130.51041030004853,131.08023920003325,[-0.12239583333333333],[-0.4127604166666667],[1],[0],[0],[1.6166493000346236],['target'],683392,001,2024-10-10_16h17.04.585,script,2024.2.1post4,59.89279190889549,2024-10-10 16h17.13.563138 +0530,
82,0,82,[0.20572916666666666],[-0.13932291666666666],[1],[0],[0],[1.4776630000560544],['target'],82,0,82,0,131.1386613000068,,5,131.1187127000303,131.1386613000068,131.1386613000068,0.038175599998794496,132.14374100003624,132.59705250000115,[0.20572916666666666],[-0.13932291666666666],[1],[0],[0],[1.4776630000560544],['target'],683392,001,2024-10-10_16h17.04.585,script,2024.2.1post4,59.89279190889549,2024-10-10 16h17.13.563138 +0530,
83,0,83,[0.09505208333333333],[0.00390625],[1],[0],[0],[0.9290867999661714],['target'],83,0,83,0,132.65242150000995,,5,132.63308140001027,132.65242150000995,132.65242150000995,0.035798000055365264,,133.5628190000425,[0.09505208333333333],[0.00390625],[1],[0],[0],[0.9290867999661714],['target'],683392,001,2024-10-10_16h17.04.585,script,2024.2.1post4,59.89279190889549,2024-10-10 16h17.13.563138 +0530,
84,0,84,[-0.015625],[0.1328125],[1],[0],[0],[0.8572709999862127],['target'],84,0,84,0,133.62506070005475,,5,133.60512740002014,133.62506070005475,133.62506070005475,0.0420779999694787,,134.4629967000219,[-0.015625],[0.1328125],[1],[0],[0],[0.8572709999862127],['target'],683392,001,2024-10-10_16h17.04.585,script,2024.2.1post4,59.89279190889549,2024-10-10 16h17.13.563138 +0530,
85,0,85,[0.17447916666666666],[-0.016927083333333332],[1],[0],[0],[0.8231717000016943],['target'],85,0,85,0,134.52397530002054,,5,134.50617900001816,134.52397530002054,134.52397530002054,0.04296400002203882,,135.33017950004432,[0.17447916666666666],[-0.016927083333333332],[1],[0],[0],[0.8231717000016943],['target'],683392,001,2024-10-10_16h17.04.585,script,2024.2.1post4,59.89279190889549,2024-10-10 16h17.13.563138 +0530,
86,0,86,[0.20442708333333334],[-0.4205729166666667],[1],[0],[0],[1.7301090999972075],['target'],86,0,86,0,135.42580730002373,,10,135.39859900000738,135.42580730002373,135.42580730002373,0.06818429997656494,136.4269903000095,137.12936230003834,[0.20442708333333334],[-0.4205729166666667],[1],[0],[0],[1.7301090999972075],['target'],683392,001,2024-10-10_16h17.04.585,script,2024.2.1post4,59.89279190889549,2024-10-10 16h17.13.563138 +0530,
87,0,87,[-0.171875],[-0.049479166666666664],[1],[0],[0],[1.0669482999946922],['target'],87,0,87,0,137.1800971000339,,5,137.16172190004727,137.1800971000339,137.1800971000339,0.032068800006527454,138.1940184000414,138.2292802000302,[-0.171875],[-0.049479166666666664],[1],[0],[0],[1.0669482999946922],['target'],683392,001,2024-10-10_16h17.04.585,script,2024.2.1post4,59.89279190889549,2024-10-10 16h17.13.563138 +0530,
88,0,88,[-0.2877604166666667],[0.4361979166666667],[1],[0],[0],[1.9460607999935746],['target'],88,0,88,0,138.2836124000023,,5,138.26231170003302,138.2836124000023,138.2836124000023,0.03280679997988045,139.29368740000064,140.23931680002715,[-0.2877604166666667],[0.4361979166666667],[1],[0],[0],[1.9460607999935746],['target'],683392,001,2024-10-10_16h17.04.585,script,2024.2.1post4,59.89279190889549,2024-10-10 16h17.13.563138 +0530,
89,0,89,[-0.3528645833333333],[0.2825520833333333],[1],[0],[0],[1.445882999978494],['target'],89,0,89,0,140.43320120003773,,10,140.3161680000485,140.43320120003773,140.43320120003773,0.07640750001883134,141.4444595000241,141.76280340005178,[-0.3528645833333333],[0.2825520833333333],[1],[0],[0],[1.445882999978494],['target'],683392,001,2024-10-10_16h17.04.585,script,2024.2.1post4,59.89279190889549,2024-10-10 16h17.13.563138 +0530,
90,0,90,[-0.3984375],[0.2109375],[1],[0],[0],[0.8363974000094458],['target'],90,0,90,0,141.88602920004632,,10,141.84343220002484,141.88602920004632,141.88602920004632,0.08030930004315451,,142.68076480005402,[-0.3984375],[0.2109375],[1],[0],[0],[0.8363974000094458],['target'],683392,001,2024-10-10_16h17.04.585,script,2024.2.1post4,59.89279190889549,2024-10-10 16h17.13.563138 +0530,
91,0,91,[-0.1953125],[0.30078125],[1],[0],[0],[1.02036369999405],['target'],91,0,91,0,142.74299880000763,,5,142.72538420005003,142.74299880000763,142.74299880000763,0.04425509995780885,143.74321860005148,143.7464648000314,[-0.1953125],[0.30078125],[1],[0],[0],[1.02036369999405],['target'],683392,001,2024-10-10_16h17.04.585,script,2024.2.1post4,59.89279190889549,2024-10-10 16h17.13.563138 +0530,
92,0,92,[0.21354166666666666],[-0.109375],[1],[0],[0],[1.355167599976994],['target'],92,0,92,0,143.80837530002464,,5,143.79059050005162,143.80837530002464,143.80837530002464,0.04389739996986464,144.80979870003648,145.1468231000472,[0.21354166666666666],[-0.109375],[1],[0],[0],[1.355167599976994],['target'],683392,001,2024-10-10_16h17.04.585,script,2024.2.1post4,59.89279190889549,2024-10-10 16h17.13.563138 +0530,
93,0,93,[-0.18880208333333334],[-0.2760416666666667],[1],[0],[0],[1.115354799956549],['target'],93,0,93,0,145.2423849000479,,10,145.2131165000028,145.2423849000479,145.2423849000479,0.06602009997004643,146.24302000005264,146.3291048000101,[-0.18880208333333334],[-0.2760416666666667],[1],[0],[0],[1.115354799956549],['target'],683392,001,2024-10-10_16h17.04.585,script,2024.2.1post4,59.89279190889549,2024-10-10 16h17.13.563138 +0530,
94,0,94,[-0.12239583333333333],[0.32421875],[1],[0],[0],[1.9043619000003673],['target'],94,0,94,0,146.44052830000874,,10,146.40771060000407,146.44052830000874,146.44052830000874,0.07831189996795729,147.4428875000449,148.31280960002914,[-0.12239583333333333],[0.32421875],[1],[0],[0],[1.9043619000003673],['target'],683392,001,2024-10-10_16h17.04.585,script,2024.2.1post4,59.89279190889549,2024-10-10 16h17.13.563138 +0530,
95,0,95,[-0.4466145833333333],[0.11458333333333333],[1],[0],[0],[1.1161002999870107],['target'],95,0,95,0,148.41028010001173,,10,148.37933740002336,148.41028010001173,148.41028010001173,0.06622760003665462,149.40945800003828,149.49627350002993,[-0.4466145833333333],[0.11458333333333333],[1],[0],[0],[1.1161002999870107],['target'],683392,001,2024-10-10_16h17.04.585,script,2024.2.1post4,59.89279190889549,2024-10-10 16h17.13.563138 +0530,
96,0,96,[0.140625],[-0.4088541666666667],[1],[0],[0],[1.5613820999860764],['target'],96,0,96,0,149.55109680001624,,5,149.53383560001384,149.55109680001624,149.55109680001624,0.03724490001332015,150.55962780001573,151.0958196000429,[0.140625],[-0.4088541666666667],[1],[0],[0],[1.5613820999860764],['target'],683392,001,2024-10-10_16h17.04.585,script,2024.2.1post4,59.89279190889549,2024-10-10 16h17.13.563138 +0530,
97,0,97,[0.48046875],[-0.2994791666666667],[1],[0],[0],[1.5194379999884404],['target'],97,0,97,0,151.14759090001462,,5,151.12820530001773,151.14759090001462,151.14759090001462,0.03216719999909401,152.15956780000124,152.6483019000152,[0.48046875],[-0.2994791666666667],[1],[0],[0],[1.5194379999884404],['target'],683392,001,2024-10-10_16h17.04.585,script,2024.2.1post4,59.89279190889549,2024-10-10 16h17.13.563138 +0530,
98,0,98,[-0.10546875],[0.4557291666666667],[1],[0],[0],[1.477500000037253],['target'],98,0,98,0,152.7029928000411,,5,152.68413510004757,152.7029928000411,152.7029928000411,0.03555390000110492,153.70938160002697,154.16232160001528,[-0.10546875],[0.4557291666666667],[1],[0],[0],[1.477500000037253],['target'],683392,001,2024-10-10_16h17.04.585,script,2024.2.1post4,59.89279190889549,2024-10-10 16h17.13.563138 +0530,
99,0,99,[0.28125],[-0.3450520833333333],[1],[0],[0],[2.1007279000477865],[None],99,0,99,0,154.25573870004155,,10,154.22721410001395,154.25573870004155,154.25573870004155,0.06467170000541955,155.25907810003264,156.32855080004083,[0.28125],[-0.3450520833333333],[1],[0],[0],[2.1007279000477865],[None],683392,001,2024-10-10_16h17.04.585,script,2024.2.1post4,59.89279190889549,2024-10-10 16h17.13.563138 +0530,
100,0,100,[0.3020833333333333],[-0.23958333333333334],[1],[0],[0],[0.8017507000477053],['target'],100,0,100,0,156.3774231999996,,5,156.3604164000135,156.3774231999996,156.3774231999996,0.031572100007906556,,157.16279590001795,[0.3020833333333333],[-0.23958333333333334],[1],[0],[0],[0.8017507000477053],['target'],683392,001,2024-10-10_16h17.04.585,script,2024.2.1post4,59.89279190889549,2024-10-10 16h17.13.563138 +0530,
101,0,101,[0.3229166666666667],[0.3255208333333333],[1],[0],[0],[1.9820676000090316],['target'],101,0,101,0,157.25929610000458,,10,157.22930490004364,157.25929610000458,157.25929610000458,0.06611730001168326,158.2599346000352,159.21185479999986,[0.3229166666666667],[0.3255208333333333],[1],[0],[0],[1.9820676000090316],['target'],683392,001,2024-10-10_16h17.04.585,script,2024.2.1post4,59.89279190889549,2024-10-10 16h17.13.563138 +0530,
102,0,102,[0.3268229166666667],[0.34765625],[1],[0],[0],[1.3016960000386462],['target'],102,0,102,0,159.25917130004382,,5,159.24285690003308,159.25917130004382,159.25917130004382,0.030707099998835474,160.2590510000009,160.54526510002324,[0.3268229166666667],[0.34765625],[1],[0],[0],[1.3016960000386462],['target'],683392,001,2024-10-10_16h17.04.585,script,2024.2.1post4,59.89279190889549,2024-10-10 16h17.13.563138 +0530,
103,0,103,[-0.0390625],[-0.3307291666666667],[1],[0],[0],[1.3843629999901168],['target'],103,0,103,0,160.59260600002017,,5,160.57591450004838,160.59260600002017,160.59260600002017,0.030435699969530106,161.59219280001707,161.9606330000097,[-0.0390625],[-0.3307291666666667],[1],[0],[0],[1.3843629999901168],['target'],683392,001,2024-10-10_16h17.04.585,script,2024.2.1post4,59.89279190889549,2024-10-10 16h17.13.563138 +0530,
104,0,104,[0.3098958333333333],[-0.4049479166666667],[1],[0],[0],[1.2097006000112742],['target'],104,0,104,0,162.0634273000178,,10,162.03485550003825,162.0634273000178,162.0634273000178,0.07403709995560348,163.07657930004643,163.24751050001942,[0.3098958333333333],[-0.4049479166666667],[1],[0],[0],[1.2097006000112742],['target'],683392,001,2024-10-10_16h17.04.585,script,2024.2.1post4,59.89279190889549,2024-10-10 16h17.13.563138 +0530,
105,0,105,[-0.2682291666666667],[0.2734375],[1],[0],[0],[1.0612599999876693],['target'],105,0,105,0,163.35414760001004,,10,163.31784490001155,163.35414760001004,163.35414760001004,0.06983059999765828,164.3602278000326,164.37981940002646,[-0.2682291666666667],[0.2734375],[1],[0],[0],[1.0612599999876693],['target'],683392,001,2024-10-10_16h17.04.585,script,2024.2.1post4,59.89279190889549,2024-10-10 16h17.13.563138 +0530,
106,0,106,[0.21875],[0.12369791666666667],[1],[0],[0],[0.9459196000243537],['target'],106,0,106,0,164.6183153000311,,10,164.5878580000135,164.6183153000311,164.6183153000311,0.20783140003914014,,165.53444610000588,[0.21875],[0.12369791666666667],[1],[0],[0],[0.9459196000243537],['target'],683392,001,2024-10-10_16h17.04.585,script,2024.2.1post4,59.89279190889549,2024-10-10 16h17.13.563138 +0530,
107,0,107,[-0.0078125],[0.4544270833333333],[1],[0],[0],[1.1414748999523],['target'],107,0,107,0,165.5900039000553,,5,165.56959990004543,165.5900039000553,165.5900039000553,0.034775500011164695,166.5918445000425,166.7117843000451,[-0.0078125],[0.4544270833333333],[1],[0],[0],[1.1414748999523],['target'],683392,001,2024-10-10_16h17.04.585,script,2024.2.1post4,59.89279190889549,2024-10-10 16h17.13.563138 +0530,
108,0,108,[-0.3763020833333333],[0.09244791666666667],[1],[0],[0],[0.9389873999753036],['target'],108,0,108,0,166.77300760004437,,5,166.7544232000364,166.77300760004437,166.77300760004437,0.042404300009366125,,167.69383770000422,[-0.3763020833333333],[0.09244791666666667],[1],[0],[0],[0.9389873999753036],['target'],683392,001,2024-10-10_16h17.04.585,script,2024.2.1post4,59.89279190889549,2024-10-10 16h17.13.563138 +0530,
109,0,109,[0.23828125],[-0.21484375],[1],[0],[0],[1.384354199981317],['target'],109,0,109,0,167.74377900001127,,5,167.72639580001123,167.74377900001127,167.74377900001127,0.03219719999469817,168.75861090002581,169.1113923000521,[0.23828125],[-0.21484375],[1],[0],[0],[1.384354199981317],['target'],683392,001,2024-10-10_16h17.04.585,script,2024.2.1post4,59.89279190889549,2024-10-10 16h17.13.563138 +0530,
110,0,110,[0.1484375],[-0.4778645833333333],[1],[0],[0],[1.0196027999627404],[None],110,0,110,0,169.22315130004426,,10,169.19093030004296,169.22315130004426,169.22315130004426,0.07930010004201904,170.30673080001725,170.2111352000502,[0.1484375],[-0.4778645833333333],[1],[0],[0],[1.0196027999627404],[None],683392,001,2024-10-10_16h17.04.585,script,2024.2.1post4,59.89279190889549,2024-10-10 16h17.13.563138 +0530,
111,0,111,[0.19270833333333334],[-0.21223958333333334],[1],[0],[0],[1.4026984000229277],['target'],111,0,111,0,170.30673080001725,,10,170.27497610001592,170.30673080001725,170.30673080001725,0.06355159997474402,171.30841230001533,171.67838860000484,[0.19270833333333334],[-0.21223958333333334],[1],[0],[0],[1.4026984000229277],['target'],683392,001,2024-10-10_16h17.04.585,script,2024.2.1post4,59.89279190889549,2024-10-10 16h17.13.563138 +0530,
112,0,112,[0.17447916666666666],[-0.2421875],[1],[0],[0],[0.7329829000518657],[None],112,0,112,0,171.73094460001448,,5,171.71193680004217,171.73094460001448,171.73094460001448,0.03324560000328347,,172.4456895000185,[0.17447916666666666],[-0.2421875],[1],[0],[0],[0.7329829000518657],[None],683392,001,2024-10-10_16h17.04.585,script,2024.2.1post4,59.89279190889549,2024-10-10 16h17.13.563138 +0530,
113,0,113,[0.2994791666666667],[0.024739583333333332],[1],[0],[0],[0.7774643000448123],['target'],113,0,113,0,172.54727740003727,,10,172.51616220001597,172.54727740003727,172.54727740003727,0.07022759999381378,,173.2942709000199,[0.2994791666666667],[0.024739583333333332],[1],[0],[0],[0.7774643000448123],['target'],683392,001,2024-10-10_16h17.04.585,script,2024.2.1post4,59.89279190889549,2024-10-10 16h17.13.563138 +0530,
114,0,114,[-0.22916666666666666],[0.11067708333333333],[1],[0],[0],[1.0383229999570176],['target'],114,0,114,0,173.4005818000296,,10,173.37269160000142,173.4005818000296,173.4005818000296,0.07812880002893507,174.40866980003193,174.4116659000283,[-0.22916666666666666],[0.11067708333333333],[1],[0],[0],[1.0383229999570176],['target'],683392,001,2024-10-10_16h17.04.585,script,2024.2.1post4,59.89279190889549,2024-10-10 16h17.13.563138 +0530,
115,0,115,[0.2747395833333333],[0.3216145833333333],[1],[0],[0],[1.0520294000161812],['target'],115,0,115,0,174.46145510004135,,5,174.44367430004058,174.46145510004135,174.46145510004135,0.03156219999073073,175.47592380002607,175.49625660001766,[0.2747395833333333],[0.3216145833333333],[1],[0],[0],[1.0520294000161812],['target'],683392,001,2024-10-10_16h17.04.585,script,2024.2.1post4,59.89279190889549,2024-10-10 16h17.13.563138 +0530,
116,0,116,[0.28125],[0.23046875],[1],[0],[0],[2.0802449000184424],['target'],116,0,116,0,175.6061836000299,,10,175.5683765000431,175.6061836000299,175.6061836000299,0.07182390004163608,176.60976270004176,177.64913560001878,[0.28125],[0.23046875],[1],[0],[0],[2.0802449000184424],['target'],683392,001,2024-10-10_16h17.04.585,script,2024.2.1post4,59.89279190889549,2024-10-10 16h17.13.563138 +0530,
117,0,117,[0.2682291666666667],[-0.022135416666666668],[1],[0],[0],[1.1604530999902636],['target'],117,0,117,0,177.7656698000501,,10,177.73409390001325,177.7656698000501,177.7656698000501,0.0846031000255607,178.77642080001533,178.8953729000059,[0.2682291666666667],[-0.022135416666666668],[1],[0],[0],[1.1604530999902636],['target'],683392,001,2024-10-10_16h17.04.585,script,2024.2.1post4,59.89279190889549,2024-10-10 16h17.13.563138 +0530,
118,0,118,[0.203125],[0.2825520833333333],[1],[0],[0],[1.0328196000191383],['target'],118,0,118,0,178.94698840001365,,5,178.92935230000876,178.94698840001365,178.94698840001365,0.03365360002499074,179.95940940000582,179.96281550003914,[0.203125],[0.2825520833333333],[1],[0],[0],[1.0328196000191383],['target'],683392,001,2024-10-10_16h17.04.585,script,2024.2.1post4,59.89279190889549,2024-10-10 16h17.13.563138 +0530,
119,0,119,[-0.2890625],[-0.1953125],[1],[0],[0],[1.3462651000008918],['target'],119,0,119,0,180.06053150002845,,10,180.03039020003052,180.06053150002845,180.06053150002845,0.06725870002992451,181.07812700001523,181.3772649000166,[-0.2890625],[-0.1953125],[1],[0],[0],[1.3462651000008918],['target'],683392,001,2024-10-10_16h17.04.585,script,2024.2.1post4,59.89279190889549,2024-10-10 16h17.13.563138 +0530,
120,0,120,[-0.13671875],[0.3515625],[1],[0],[0],[1.0833053999813274],['target'],120,0,120,0,181.4346320000477,,5,181.41162070003338,181.4346320000477,181.4346320000477,0.034068900044076145,182.44206450000638,182.49565840000287,[-0.13671875],[0.3515625],[1],[0],[0],[1.0833053999813274],['target'],683392,001,2024-10-10_16h17.04.585,script,2024.2.1post4,59.89279190889549,2024-10-10 16h17.13.563138 +0530,
121,0,121,[0.3841145833333333],[-0.20572916666666666],[1],[0],[0],[2.7244564999709837],['target'],121,0,121,0,182.6054845000035,,10,182.56868680001935,182.6054845000035,182.6054845000035,0.07270509999943897,183.60786810005084,185.29377510002814,[0.3841145833333333],[-0.20572916666666666],[1],[0],[0],[2.7244564999709837],['target'],683392,001,2024-10-10_16h17.04.585,script,2024.2.1post4,59.89279190889549,2024-10-10 16h17.13.563138 +0530,
122,0,122,[0.04296875],[-0.12890625],[1],[0],[0],[0.9420977999689057],['target'],122,0,122,0,185.398993800045,,10,185.36800910002785,185.398993800045,185.398993800045,0.07394210004713386,,186.31081630004337,[0.04296875],[-0.12890625],[1],[0],[0],[0.9420977999689057],['target'],683392,001,2024-10-10_16h17.04.585,script,2024.2.1post4,59.89279190889549,2024-10-10 16h17.13.563138 +0530,
123,0,123,[-0.3111979166666667],[0.3346354166666667],[1],[0],[0],[1.117376799986232],['target'],123,0,123,0,186.36456140002701,,5,186.34342520002974,186.36456140002701,186.36456140002701,0.032314600015524775,187.37441070005298,187.46152470004745,[-0.3111979166666667],[0.3346354166666667],[1],[0],[0],[1.117376799986232],['target'],683392,001,2024-10-10_16h17.04.585,script,2024.2.1post4,59.89279190889549,2024-10-10 16h17.13.563138 +0530,
124,0,124,[-0.2721354166666667],[0.4934895833333333],[1],[0],[0],[3.5344863000209443],['target'],124,0,124,0,187.55657410004642,,10,187.52549340005498,187.55657410004642,187.55657410004642,0.06374470004811883,188.55792230000952,191.06058370001847,[-0.2721354166666667],[0.4934895833333333],[1],[0],[0],[3.5344863000209443],['target'],683392,001,2024-10-10_16h17.04.585,script,2024.2.1post4,59.89279190889549,2024-10-10 16h17.13.563138 +0530,
125,0,125,[-0.4453125],[-0.4609375],[1],[0],[0],[2.3019449000130408],['target'],125,0,125,0,191.10835059999954,,5,191.09129570005462,191.10835059999954,191.10835059999954,0.030406499980017543,192.10743670002557,193.39392100000987,[-0.4453125],[-0.4609375],[1],[0],[0],[2.3019449000130408],['target'],683392,001,2024-10-10_16h17.04.585,script,2024.2.1post4,59.89279190889549,2024-10-10 16h17.13.563138 +0530,
126,0,126,[0.3971354166666667],[0.3346354166666667],[1],[0],[0],[1.7327219999860972],['target'],126,0,126,0,193.44411260000197,,5,193.42646370001603,193.44411260000197,193.44411260000197,0.032311900053173304,194.45766140002524,195.15988700004527,[0.3971354166666667],[0.3346354166666667],[1],[0],[0],[1.7327219999860972],['target'],683392,001,2024-10-10_16h17.04.585,script,2024.2.1post4,59.89279190889549,2024-10-10 16h17.13.563138 +0530,
127,0,127,[0.4791666666666667],[-0.21744791666666666],[1],[0],[0],[3.389061599969864],['target'],127,0,127,0,195.23157160001574,,5,195.20378280000295,195.23157160001574,195.23157160001574,0.04367199999978766,196.24067540001124,198.593442100042,[0.4791666666666667],[-0.21744791666666666],[1],[0],[0],[3.389061599969864],['target'],683392,001,2024-10-10_16h17.04.585,script,2024.2.1post4,59.89279190889549,2024-10-10 16h17.13.563138 +0530,
128,0,128,[0.48046875],[-0.20963541666666666],[1],[0],[0],[0.8393768999958411],[None],128,0,128,0,198.6543114000233,,5,198.63668789999792,198.6543114000233,198.6543114000233,0.04302179999649525,,199.47664860001532,[0.48046875],[-0.20963541666666666],[1],[0],[0],[0.8393768999958411],[None],683392,001,2024-10-10_16h17.04.585,script,2024.2.1post4,59.89279190889549,2024-10-10 16h17.13.563138 +0530,
129,0,129,[-0.4635416666666667],[-0.19791666666666666],[1],[0],[0],[1.4685302000143565],['target'],129,0,129,0,199.5355837000534,,5,199.5075714000268,199.5355837000534,199.5355837000534,0.030709700018633157,200.54097790003289,200.97693679999793,[-0.4635416666666667],[-0.19791666666666666],[1],[0],[0],[1.4685302000143565],['target'],683392,001,2024-10-10_16h17.04.585,script,2024.2.1post4,59.89279190889549,2024-10-10 16h17.13.563138 +0530,
130,0,130,[-0.11458333333333333],[0.07421875],[1],[0],[0],[1.0563232999993488],['target'],130,0,130,0,201.08847730001435,,10,201.05353319999995,201.08847730001435,201.08847730001435,0.07678510004188865,202.09219770005438,202.11199910001596,[-0.11458333333333333],[0.07421875],[1],[0],[0],[1.0563232999993488],['target'],683392,001,2024-10-10_16h17.04.585,script,2024.2.1post4,59.89279190889549,2024-10-10 16h17.13.563138 +0530,
131,0,131,[0.10807291666666667],[-0.19921875],[1],[0],[0],[2.772061299998313],[None],131,0,131,0,202.18088890000945,,5,202.15899970004102,202.18088890000945,202.18088890000945,0.04664110002340749,203.19018050003797,204.9321617000387,[0.10807291666666667],[-0.19921875],[1],[0],[0],[2.772061299998313],[None],683392,001,2024-10-10_16h17.04.585,script,2024.2.1post4,59.89279190889549,2024-10-10 16h17.13.563138 +0530,
132,0,132,[0.11848958333333333],[-0.42578125],[1],[0],[0],[1.8905558000551537],['target'],132,0,132,0,204.98676920001162,,5,204.96757060004165,204.98676920001162,204.98676920001162,0.03512010001577437,205.9918853000272,206.86508050002158,[0.11848958333333333],[-0.42578125],[1],[0],[0],[1.8905558000551537],['target'],683392,001,2024-10-10_16h17.04.585,script,2024.2.1post4,59.89279190889549,2024-10-10 16h17.13.563138 +0530,
133,0,133,[-0.0234375],[0.17057291666666666],[1],[0],[0],[1.1224069999880157],[None],133,0,133,0,206.96032750001177,,10,206.92477390001295,206.96032750001177,206.96032750001177,0.05928019998827949,207.97337620001053,208.04787900001975,[-0.0234375],[0.17057291666666666],[1],[0],[0],[1.1224069999880157],[None],683392,001,2024-10-10_16h17.04.585,script,2024.2.1post4,59.89279190889549,2024-10-10 16h17.13.563138 +0530,
134,0,134,[0.48046875],[0.3841145833333333],[1],[0],[0],[1.8591676999931224],['target'],134,0,134,0,208.10550700000022,,5,208.08316130004823,208.10550700000022,208.10550700000022,0.034794799983501434,209.10662430000957,209.94293860002654,[0.48046875],[0.3841145833333333],[1],[0],[0],[1.8591676999931224],['target'],683392,001,2024-10-10_16h17.04.585,script,2024.2.1post4,59.89279190889549,2024-10-10 16h17.13.563138 +0530,
135,0,135,[0.06770833333333333],[0.19010416666666666],[1],[0],[0],[1.5819731999654323],['target'],135,0,135,0,210.03773130004993,,10,210.01158180000493,210.03773130004993,210.03773130004993,0.06843949999893084,211.04098190000514,211.59440450003603,[0.06770833333333333],[0.19010416666666666],[1],[0],[0],[1.5819731999654323],['target'],683392,001,2024-10-10_16h17.04.585,script,2024.2.1post4,59.89279190889549,2024-10-10 16h17.13.563138 +0530,
136,0,136,[-0.24609375],[-0.2786458333333333],[1],[0],[0],[2.0877506000106223],['target'],136,0,136,0,211.7282264000387,,5,211.6386905000545,211.7282264000387,211.7282264000387,0.04391760000726208,212.74087620002683,213.7275961000123,[-0.24609375],[-0.2786458333333333],[1],[0],[0],[2.0877506000106223],['target'],683392,001,2024-10-10_16h17.04.585,script,2024.2.1post4,59.89279190889549,2024-10-10 16h17.13.563138 +0530,
137,0,137,[-0.3294270833333333],[-0.2786458333333333],[1],[0],[0],[1.3979855999932624],['target'],137,0,137,0,213.78142320003826,,5,213.76085550000425,213.78142320003826,213.78142320003826,0.032958899973891675,214.79019320005318,215.15959570003906,[-0.3294270833333333],[-0.2786458333333333],[1],[0],[0],[1.3979855999932624],['target'],683392,001,2024-10-10_16h17.04.585,script,2024.2.1post4,59.89279190889549,2024-10-10 16h17.13.563138 +0530,
138,0,138,[-0.20182291666666666],[0.23046875],[1],[0],[0],[3.1551574000041],['target'],138,0,138,0,215.26684340002248,,10,215.23771430004854,215.26684340002248,215.26684340002248,0.07789499999489635,216.27366900001653,218.3934247000143,[-0.20182291666666666],[0.23046875],[1],[0],[0],[3.1551574000041],['target'],683392,001,2024-10-10_16h17.04.585,script,2024.2.1post4,59.89279190889549,2024-10-10 16h17.13.563138 +0530,
139,0,139,[0.44140625],[-0.08072916666666667],[1],[0],[0],[2.692891000013333],['target'],139,0,139,0,218.49870150000788,,10,218.4655423000222,218.49870150000788,218.49870150000788,0.071728200011421,219.5064563000342,221.15936490002787,[0.44140625],[-0.08072916666666667],[1],[0],[0],[2.692891000013333],['target'],683392,001,2024-10-10_16h17.04.585,script,2024.2.1post4,59.89279190889549,2024-10-10 16h17.13.563138 +0530,
140,0,140,[0.2565104166666667],[-0.20703125],[1],[0],[0],[2.1844456999679096],['target'],140,0,140,0,221.25539870001376,,10,221.22562750004,221.25539870001376,221.25539870001376,0.0659559000050649,222.2563453000039,223.41073290002532,[0.2565104166666667],[-0.20703125],[1],[0],[0],[2.1844456999679096],['target'],683392,001,2024-10-10_16h17.04.585,script,2024.2.1post4,59.89279190889549,2024-10-10 16h17.13.563138 +0530,
141,0,141,[-0.4817708333333333],[0.13151041666666666],[1],[0],[0],[2.0599182000150904],['target'],141,0,141,0,223.51168730005156,,10,223.48158600000897,223.51168730005156,223.51168730005156,0.07051970000611618,224.52337629999965,225.54213760001585,[-0.4817708333333333],[0.13151041666666666],[1],[0],[0],[2.0599182000150904],['target'],683392,001,2024-10-10_16h17.04.585,script,2024.2.1post4,59.89279190889549,2024-10-10 16h17.13.563138 +0530,
142,0,142,[-0.3971354166666667],[-0.03125],[1],[0],[0],[0.858236100000795],['target'],142,0,142,0,225.64687760005472,,10,225.61830410000402,225.64687760005472,225.64687760005472,0.0757282999693416,,226.47729100001743,[-0.3971354166666667],[-0.03125],[1],[0],[0],[0.858236100000795],['target'],683392,001,2024-10-10_16h17.04.585,script,2024.2.1post4,59.89279190889549,2024-10-10 16h17.13.563138 +0530,
143,0,143,[0.005208333333333333],[-0.4661458333333333],[1],[0],[0],[1.8431013000081293],[None],143,0,143,0,226.5887532000197,,10,226.5499425000162,226.5887532000197,226.5887532000197,0.07232500001555309,227.59363810002105,228.39421080000466,[0.005208333333333333],[-0.4661458333333333],[1],[0],[0],[1.8431013000081293],[None],683392,001,2024-10-10_16h17.04.585,script,2024.2.1post4,59.89279190889549,2024-10-10 16h17.13.563138 +0530,
144,0,144,[0.078125],[0.40625],[1],[0],[0],[1.6127207000390626],['target'],144,0,144,0,228.45110160001786,,5,228.43006700003752,228.45110160001786,228.45110160001786,0.03549719997681677,229.4571075999993,230.04382340004668,[0.078125],[0.40625],[1],[0],[0],[1.6127207000390626],['target'],683392,001,2024-10-10_16h17.04.585,script,2024.2.1post4,59.89279190889549,2024-10-10 16h17.13.563138 +0530,
145,0,145,[0.3151041666666667],[0.28515625],[1],[0],[0],[1.2167626000009477],['target'],145,0,145,0,230.0972979000071,,5,230.07733690005261,230.0972979000071,230.0972979000071,0.033211000030860305,231.11033080000198,231.29477330000373,[0.3151041666666667],[0.28515625],[1],[0],[0],[1.2167626000009477],['target'],683392,001,2024-10-10_16h17.04.585,script,2024.2.1post4,59.89279190889549,2024-10-10 16h17.13.563138 +0530,
146,0,146,[0.20182291666666666],[0.046875],[1],[0],[0],[1.2454009999637492],['target'],146,0,146,0,231.34866200003307,,5,231.32900680002058,231.34866200003307,231.34866200003307,0.03396829997655004,232.35670060000848,232.57511260005413,[0.20182291666666666],[0.046875],[1],[0],[0],[1.2454009999637492],['target'],683392,001,2024-10-10_16h17.04.585,script,2024.2.1post4,59.89279190889549,2024-10-10 16h17.13.563138 +0530,
147,0,147,[-0.4583333333333333],[-0.25],[1],[0],[0],[1.351398499973584],['target'],147,0,147,0,232.62800160003826,,5,232.60829050000757,232.62800160003826,232.62800160003826,0.03289510001195595,233.64047150005354,233.9603541000397,[-0.4583333333333333],[-0.25],[1],[0],[0],[1.351398499973584],['target'],683392,001,2024-10-10_16h17.04.585,script,2024.2.1post4,59.89279190889549,2024-10-10 16h17.13.563138 +0530,
148,0,148,[-0.3203125],[0.18880208333333334],[1],[0],[0],[1.6661615000339225],['target'],148,0,148,0,234.02153450000333,,5,233.99528850003844,234.02153450000333,234.02153450000333,0.03465940000023693,235.0233423000318,235.66209500003606,[-0.3203125],[0.18880208333333334],[1],[0],[0],[1.6661615000339225],['target'],683392,001,2024-10-10_16h17.04.585,script,2024.2.1post4,59.89279190889549,2024-10-10 16h17.13.563138 +0530,
149,0,149,[-0.2942708333333333],[0.3333333333333333],[1],[0],[0],[1.1783498000004329],['target'],149,0,149,0,235.7206509000389,,5,235.6964649000438,235.7206509000389,235.7206509000389,0.03408319997834042,236.72322800004622,236.8777609000099,[-0.2942708333333333],[0.3333333333333333],[1],[0],[0],[1.1783498000004329],['target'],683392,001,2024-10-10_16h17.04.585,script,2024.2.1post4,59.89279190889549,2024-10-10 16h17.13.563138 +0530,
150,0,150,[-0.40625],[-0.390625],[1],[0],[0],[1.4625434000045061],['target'],150,0,150,0,236.99550250003813,,10,236.96197689999826,236.99550250003813,236.99550250003813,0.08420789998490363,238.00654650002252,238.42537160002394,[-0.40625],[-0.390625],[1],[0],[0],[1.4625434000045061],['target'],683392,001,2024-10-10_16h17.04.585,script,2024.2.1post4,59.89279190889549,2024-10-10 16h17.13.563138 +0530,
151,0,151,[-0.2421875],[-0.24088541666666666],[1],[0],[0],[1.499471299990546],['target'],151,0,151,0,238.4769809000427,,5,238.4585746000521,238.4769809000427,238.4769809000427,0.032880600017961115,239.48890440003015,239.95869710005354,[-0.2421875],[-0.24088541666666666],[1],[0],[0],[1.499471299990546],['target'],683392,001,2024-10-10_16h17.04.585,script,2024.2.1post4,59.89279190889549,2024-10-10 16h17.13.563138 +0530,
152,0,152,[-0.3385416666666667],[0.18359375],[1],[0],[0],[1.1837015000055544],['target'],152,0,152,0,240.00679010001477,,5,239.98979700001655,240.00679010001477,240.00679010001477,0.03087929997127503,241.02185110002756,241.17391390004195,[-0.3385416666666667],[0.18359375],[1],[0],[0],[1.1837015000055544],['target'],683392,001,2024-10-10_16h17.04.585,script,2024.2.1post4,59.89279190889549,2024-10-10 16h17.13.563138 +0530,
153,0,153,[-0.2981770833333333],[-0.4036458333333333],[1],[0],[0],[2.6250910999951884],[None],153,0,153,0,241.27690590004204,,10,241.2484885000158,241.27690590004204,241.27690590004204,0.07436090003466234,242.28841269999975,243.8740717000328,[-0.2981770833333333],[-0.4036458333333333],[1],[0],[0],[2.6250910999951884],[None],683392,001,2024-10-10_16h17.04.585,script,2024.2.1post4,59.89279190889549,2024-10-10 16h17.13.563138 +0530,
154,0,154,[0.4700520833333333],[0.4596354166666667],[1],[0],[0],[3.669454200018663],['target'],154,0,154,0,243.92045400000643,,5,243.9043168000062,243.92045400000643,243.92045400000643,0.029963099979795516,244.92181070003426,247.57470990001457,[0.4700520833333333],[0.4596354166666667],[1],[0],[0],[3.669454200018663],['target'],683392,001,2024-10-10_16h17.04.585,script,2024.2.1post4,59.89279190889549,2024-10-10 16h17.13.563138 +0530,
155,0,155,[0.4635416666666667],[0.3072916666666667],[1],[0],[0],[1.9040748999686912],['target'],155,0,155,0,247.61884970002575,,5,247.60321540001314,247.61884970002575,247.61884970002575,0.028281399980187416,248.62207660003332,249.5079582000035,[0.4635416666666667],[0.3072916666666667],[1],[0],[0],[1.9040748999686912],['target'],683392,001,2024-10-10_16h17.04.585,script,2024.2.1post4,59.89279190889549,2024-10-10 16h17.13.563138 +0530,
156,0,156,[0.24088541666666666],[-0.23567708333333334],[1],[0],[0],[1.2899183999979869],['target'],156,0,156,0,249.56860870000673,,5,249.55020540003898,249.56860870000673,249.56860870000673,0.04202320001786575,250.57148310000775,250.84068700001808,[0.24088541666666666],[-0.23567708333333334],[1],[0],[0],[1.2899183999979869],['target'],683392,001,2024-10-10_16h17.04.585,script,2024.2.1post4,59.89279190889549,2024-10-10 16h17.13.563138 +0530,
157,0,157,[-0.2552083333333333],[-0.2578125],[1],[0],[0],[2.2707760999910533],['target'],157,0,157,0,250.88577640004223,,5,250.86976900004083,250.88577640004223,250.88577640004223,0.02886890002992004,251.88824840000598,253.14115200005472,[-0.2552083333333333],[-0.2578125],[1],[0],[0],[2.2707760999910533],['target'],683392,001,2024-10-10_16h17.04.585,script,2024.2.1post4,59.89279190889549,2024-10-10 16h17.13.563138 +0530,
158,0,158,[-0.22005208333333334],[0.08463541666666667],[1],[0],[0],[0.9510061999899335],['target'],158,0,158,0,253.19033830001717,,5,253.17287070001476,253.19033830001717,253.19033830001717,0.03148869995493442,,254.12446120003005,[-0.22005208333333334],[0.08463541666666667],[1],[0],[0],[0.9510061999899335],['target'],683392,001,2024-10-10_16h17.04.585,script,2024.2.1post4,59.89279190889549,2024-10-10 16h17.13.563138 +0530,
159,0,159,[0.3294270833333333],[0.12239583333333333],[1],[0],[0],[1.5352068999782205],[None],159,0,159,0,254.17281090002507,,5,254.1546614000108,254.17281090002507,254.17281090002507,0.029988199996296316,255.17166890000226,255.6905928000342,[0.3294270833333333],[0.12239583333333333],[1],[0],[0],[1.5352068999782205],[None],683392,001,2024-10-10_16h17.04.585,script,2024.2.1post4,59.89279190889549,2024-10-10 16h17.13.563138 +0530,
160,0,160,[0.13932291666666666],[-0.4713541666666667],[1],[0],[0],[1.101492399990093],['target'],160,0,160,0,255.7394581999979,,5,255.72196010005428,255.7394581999979,255.7394581999979,0.03107229998568073,256.7543270000024,256.82387940003537,[0.13932291666666666],[-0.4713541666666667],[1],[0],[0],[1.101492399990093],['target'],683392,001,2024-10-10_16h17.04.585,script,2024.2.1post4,59.89279190889549,2024-10-10 16h17.13.563138 +0530,
161,0,161,[-0.16145833333333334],[-0.016927083333333332],[1],[0],[0],[1.154986200039275],['target'],161,0,161,0,256.9175033000065,,10,256.88483980001183,256.9175033000065,256.9175033000065,0.06061799998860806,257.92109380004695,258.0404899000423,[-0.16145833333333334],[-0.016927083333333332],[1],[0],[0],[1.154986200039275],['target'],683392,001,2024-10-10_16h17.04.585,script,2024.2.1post4,59.89279190889549,2024-10-10 16h17.13.563138 +0530,
162,0,162,[0.3111979166666667],[0.453125],[1],[0],[0],[1.617122899973765],['target'],162,0,162,0,258.0906996000558,,5,258.0722309999983,258.0906996000558,258.0906996000558,0.03145170002244413,259.10424640000565,259.6899132000399,[0.3111979166666667],[0.453125],[1],[0],[0],[1.617122899973765],['target'],683392,001,2024-10-10_16h17.04.585,script,2024.2.1post4,59.89279190889549,2024-10-10 16h17.13.563138 +0530,
163,0,163,[0.20442708333333334],[-0.4921875],[1],[0],[0],[2.207931099983398],['target'],163,0,163,0,259.79614220000803,,10,259.7651818000013,259.79614220000803,259.79614220000803,0.07503130001714453,260.8041959000402,261.9736850000336,[0.20442708333333334],[-0.4921875],[1],[0],[0],[2.207931099983398],['target'],683392,001,2024-10-10_16h17.04.585,script,2024.2.1post4,59.89279190889549,2024-10-10 16h17.13.563138 +0530,
164,0,164,[-0.3828125],[-0.040364583333333336],[1],[0],[0],[0.89053309999872],[None],164,0,164,0,262.07702760002576,,10,262.04837319999933,262.07702760002576,262.07702760002576,0.07440410001436248,,262.93948330002604,[-0.3828125],[-0.040364583333333336],[1],[0],[0],[0.89053309999872],[None],683392,001,2024-10-10_16h17.04.585,script,2024.2.1post4,59.89279190889549,2024-10-10 16h17.13.563138 +0530,
165,0,165,[0.48828125],[0.13151041666666666],[1],[0],[0],[1.7376255999552086],['target'],165,0,165,0,262.9870658,,5,262.9687899000128,262.9870658,262.9870658,0.029028599965386093,263.9873856000486,264.7070861000102,[0.48828125],[0.13151041666666666],[1],[0],[0],[1.7376255999552086],['target'],683392,001,2024-10-10_16h17.04.585,script,2024.2.1post4,59.89279190889549,2024-10-10 16h17.13.563138 +0530,
166,0,166,[-0.23697916666666666],[-0.12239583333333333],[1],[0],[0],[1.7260820000083186],['target'],166,0,166,0,264.76538530003745,,5,264.74685530003626,264.76538530003745,264.76538530003745,0.039552200003527105,265.77074380003614,266.4735701000318,[-0.23697916666666666],[-0.12239583333333333],[1],[0],[0],[1.7260820000083186],['target'],683392,001,2024-10-10_16h17.04.585,script,2024.2.1post4,59.89279190889549,2024-10-10 16h17.13.563138 +0530,
167,0,167,[-0.21484375],[-0.3919270833333333],[1],[0],[0],[1.6057756000082009],['target'],167,0,167,0,266.53445630002534,,5,266.51686000003247,266.53445630002534,266.53445630002534,0.04307419998804107,267.5381327000214,268.1230826000101,[-0.21484375],[-0.3919270833333333],[1],[0],[0],[1.6057756000082009],['target'],683392,001,2024-10-10_16h17.04.585,script,2024.2.1post4,59.89279190889549,2024-10-10 16h17.13.563138 +0530,
168,0,168,[-0.2760416666666667],[-0.3190104166666667],[1],[0],[0],[1.8635343000059947],['target'],168,0,168,0,268.2202403000556,,10,268.19230570003856,268.2202403000556,268.2202403000556,0.06902230001287535,269.2215191000141,270.0569041999988,[-0.2760416666666667],[-0.3190104166666667],[1],[0],[0],[1.8635343000059947],['target'],683392,001,2024-10-10_16h17.04.585,script,2024.2.1post4,59.89279190889549,2024-10-10 16h17.13.563138 +0530,
169,0,169,[0.0026041666666666665],[0.4309895833333333],[1],[0],[0],[1.2354316000128165],['target'],169,0,169,0,270.1077295000432,,5,270.08739380002953,270.1077295000432,270.1077295000432,0.030208799988031387,271.1206818000064,271.32341730000917,[0.0026041666666666665],[0.4309895833333333],[1],[0],[0],[1.2354316000128165],['target'],683392,001,2024-10-10_16h17.04.585,script,2024.2.1post4,59.89279190889549,2024-10-10 16h17.13.563138 +0530,
170,0,170,[0.3619791666666667],[-0.2903645833333333],[1],[0],[0],[1.4577408999903128],['target'],170,0,170,0,271.427382200025,,10,271.39787850005087,271.427382200025,271.427382200025,0.07424970000283793,272.4378304000129,272.8562514000223,[0.3619791666666667],[-0.2903645833333333],[1],[0],[0],[1.4577408999903128],['target'],683392,001,2024-10-10_16h17.04.585,script,2024.2.1post4,59.89279190889549,2024-10-10 16h17.13.563138 +0530,
171,0,171,[-0.4479166666666667],[-0.3125],[1],[0],[0],[1.7404934999649413],['target'],171,0,171,0,272.9585459000082,,10,272.93206350004766,272.9585459000082,272.9585459000082,0.07549429999198765,273.9704108000151,274.67335760005517,[-0.4479166666666667],[-0.3125],[1],[0],[0],[1.7404934999649413],['target'],683392,001,2024-10-10_16h17.04.585,script,2024.2.1post4,59.89279190889549,2024-10-10 16h17.13.563138 +0530,
172,0,172,[-0.3958333333333333],[-0.4049479166666667],[1],[0],[0],[2.2656091999961063],['target'],172,0,172,0,274.770392800041,,10,274.7404398000217,274.770392800041,274.770392800041,0.06679950002580881,275.7703046000097,277.0067342000548,[-0.3958333333333333],[-0.4049479166666667],[1],[0],[0],[2.2656091999961063],['target'],683392,001,2024-10-10_16h17.04.585,script,2024.2.1post4,59.89279190889549,2024-10-10 16h17.13.563138 +0530,
173,0,173,[-0.4856770833333333],[0.49609375],[1],[0],[0],[2.2064412999898195],[None],173,0,173,0,277.06872820004355,,5,277.04891310003586,277.06872820004355,277.06872820004355,0.04176450002705678,278.07054710004013,279.25578610005323,[-0.4856770833333333],[0.49609375],[1],[0],[0],[2.2064412999898195],[None],683392,001,2024-10-10_16h17.04.585,script,2024.2.1post4,59.89279190889549,2024-10-10 16h17.13.563138 +0530,
174,0,174,[-0.20182291666666666],[-0.43359375],[1],[0],[0],[1.151639299991075],[None],174,0,174,0,279.3097841000417,,5,279.28799360000994,279.3097841000417,279.3097841000417,0.03200119995744899,280.320322900021,280.44032150000567,[-0.20182291666666666],[-0.43359375],[1],[0],[0],[1.151639299991075],[None],683392,001,2024-10-10_16h17.04.585,script,2024.2.1post4,59.89279190889549,2024-10-10 16h17.13.563138 +0530,
175,0,175,[-0.07161458333333333],[-0.040364583333333336],[1],[0],[0],[0.9801293999771588],[None],175,0,175,0,280.49757090001367,,5,280.47464830003446,280.49757090001367,280.49757090001367,0.03408389998367056,,281.4551296000136,[-0.07161458333333333],[-0.040364583333333336],[1],[0],[0],[0.9801293999771588],[None],683392,001,2024-10-10_16h17.04.585,script,2024.2.1post4,59.89279190889549,2024-10-10 16h17.13.563138 +0530,
176,0,176,[0.01171875],[0.08463541666666667],[1],[0],[0],[0.8694120000000112],['target'],176,0,176,0,281.50255350000225,,5,281.4854598000529,281.50255350000225,281.50255350000225,0.030098200018983334,,282.35554290004075,[0.01171875],[0.08463541666666667],[1],[0],[0],[0.8694120000000112],['target'],683392,001,2024-10-10_16h17.04.585,script,2024.2.1post4,59.89279190889549,2024-10-10 16h17.13.563138 +0530,
177,0,177,[0.20833333333333334],[-0.26171875],[1],[0],[0],[1.013668500003405],['target'],177,0,177,0,282.45396450004773,,10,282.4252239000052,282.45396450004773,282.45396450004773,0.06947919999947771,283.53442420001375,283.43953610002063,[0.20833333333333334],[-0.26171875],[1],[0],[0],[1.013668500003405],['target'],683392,001,2024-10-10_16h17.04.585,script,2024.2.1post4,59.89279190889549,2024-10-10 16h17.13.563138 +0530,
178,0,178,[0.20442708333333334],[-0.171875],[1],[0],[0],[0.8533907999517396],[None],178,0,178,0,283.53442420001375,,10,283.502041300002,283.53442420001375,283.53442420001375,0.06222719996003434,,284.35606810002355,[0.20442708333333334],[-0.171875],[1],[0],[0],[0.8533907999517396],[None],683392,001,2024-10-10_16h17.04.585,script,2024.2.1post4,59.89279190889549,2024-10-10 16h17.13.563138 +0530,
179,0,179,[0.3580729166666667],[0.4440104166666667],[1],[0],[0],[1.3606583999935538],['target'],179,0,179,0,284.41542560001835,,5,284.3953755000257,284.41542560001835,284.41542560001835,0.03903710003942251,285.41965190001065,285.7569352000137,[0.3580729166666667],[0.4440104166666667],[1],[0],[0],[1.3606583999935538],['target'],683392,001,2024-10-10_16h17.04.585,script,2024.2.1post4,59.89279190889549,2024-10-10 16h17.13.563138 +0530,
180,0,180,[0.009114583333333334],[0.296875],[1],[0],[0],[0.9171239999704994],['target'],180,0,180,0,285.81317700003274,,5,285.7886431000079,285.81317700003274,285.81317700003274,0.03144089999841526,,286.70651160000125,[0.009114583333333334],[0.296875],[1],[0],[0],[0.9171239999704994],['target'],683392,001,2024-10-10_16h17.04.585,script,2024.2.1post4,59.89279190889549,2024-10-10 16h17.13.563138 +0530,
181,0,181,[0.032552083333333336],[0.2513020833333333],[1],[0],[0],[0.8681589000043459],['target'],181,0,181,0,286.82107170001836,,10,286.7878757000435,286.82107170001836,286.82107170001836,0.08110619999933988,,287.65655080002034,[0.032552083333333336],[0.2513020833333333],[1],[0],[0],[0.8681589000043459],['target'],683392,001,2024-10-10_16h17.04.585,script,2024.2.1post4,59.89279190889549,2024-10-10 16h17.13.563138 +0530,
182,0,182,[0.4309895833333333],[-0.1015625],[1],[0],[0],[1.2478537000133656],['target'],182,0,182,0,287.7172101000324,,5,287.6910084000556,287.7172101000324,287.7172101000324,0.03412379999645054,288.71958299999824,288.9395395000465,[0.4309895833333333],[-0.1015625],[1],[0],[0],[1.2478537000133656],['target'],683392,001,2024-10-10_16h17.04.585,script,2024.2.1post4,59.89279190889549,2024-10-10 16h17.13.563138 +0530,
183,0,183,[0.4427083333333333],[-0.18359375],[1],[0],[0],[1.4042302999878302],['target'],183,0,183,0,289.0459891000064,,10,289.0175784000312,289.0459891000064,289.0459891000064,0.07781480002449825,290.10130730003584,290.4222457000287,[0.4427083333333333],[-0.18359375],[1],[0],[0],[1.4042302999878302],['target'],683392,001,2024-10-10_16h17.04.585,script,2024.2.1post4,59.89279190889549,2024-10-10 16h17.13.563138 +0530,
184,0,184,[-0.24479166666666666],[-0.2630208333333333],[1],[0],[0],[1.3815197999938391],['target'],184,0,184,0,290.5247268000385,,10,290.49021380004706,290.5247268000385,290.5247268000385,0.06765399995492771,291.53665260004345,291.87234739999985,[-0.24479166666666666],[-0.2630208333333333],[1],[0],[0],[1.3815197999938391],['target'],683392,001,2024-10-10_16h17.04.585,script,2024.2.1post4,59.89279190889549,2024-10-10 16h17.13.563138 +0530,
185,0,185,[0.34765625],[-0.4401041666666667],[1],[0],[0],[2.922832899959758],['target'],185,0,185,0,291.96673570002895,,10,291.9336369000375,291.96673570002895,291.96673570002895,0.061007099982816726,292.9723874000483,294.8570126000559,[0.34765625],[-0.4401041666666667],[1],[0],[0],[2.922832899959758],['target'],683392,001,2024-10-10_16h17.04.585,script,2024.2.1post4,59.89279190889549,2024-10-10 16h17.13.563138 +0530,
186,0,186,[0.23828125],[0.17708333333333334],[1],[0],[0],[1.6156130000017583],['target'],186,0,186,0,294.9114678000333,,5,294.8908627000055,294.9114678000333,294.9114678000333,0.03349899995373562,295.9216478000162,296.5071199000231,[0.23828125],[0.17708333333333334],[1],[0],[0],[1.6156130000017583],['target'],683392,001,2024-10-10_16h17.04.585,script,2024.2.1post4,59.89279190889549,2024-10-10 16h17.13.563138 +0530,
187,0,187,[0.2890625],[0.4166666666666667],[1],[0],[0],[1.093797600013204],['target'],187,0,187,0,296.6100650000153,,10,296.5777186000487,296.6100650000153,296.6100650000153,0.07036060001701117,297.6193339000456,297.6721591000096,[0.2890625],[0.4166666666666667],[1],[0],[0],[1.093797600013204],['target'],683392,001,2024-10-10_16h17.04.585,script,2024.2.1post4,59.89279190889549,2024-10-10 16h17.13.563138 +0530,
188,0,188,[-0.17057291666666666],[0.17578125],[1],[0],[0],[1.137868600024376],['target'],188,0,188,0,297.76020509999944,,10,297.7336012000451,297.76020509999944,297.76020509999944,0.06112969998503104,298.7692030000035,298.8720772000379,[-0.17057291666666666],[0.17578125],[1],[0],[0],[1.137868600024376],['target'],683392,001,2024-10-10_16h17.04.585,script,2024.2.1post4,59.89279190889549,2024-10-10 16h17.13.563138 +0530,
189,0,189,[-0.3489583333333333],[0.10286458333333333],[1],[0],[0],[1.290791699953843],['target'],189,0,189,0,298.9585107000312,,10,298.93061360000866,298.9585107000312,298.9585107000312,0.05826439999509603,299.9701194000081,300.2220705000218,[-0.3489583333333333],[0.10286458333333333],[1],[0],[0],[1.290791699953843],['target'],683392,001,2024-10-10_16h17.04.585,script,2024.2.1post4,59.89279190889549,2024-10-10 16h17.13.563138 +0530,
190,0,190,[0.3424479166666667],[-0.4010416666666667],[1],[0],[0],[3.1185901000280865],['target'],190,0,190,0,300.2663570000441,,5,300.25207000004593,300.2663570000441,300.2663570000441,0.029715900018345565,301.2695193000254,303.3710940000019,[0.3424479166666667],[-0.4010416666666667],[1],[0],[0],[3.1185901000280865],['target'],683392,001,2024-10-10_16h17.04.585,script,2024.2.1post4,59.89279190889549,2024-10-10 16h17.13.563138 +0530,
191,0,191,[0.17708333333333334],[0.2994791666666667],[1],[0],[0],[1.443313500029035],['target'],191,0,191,0,303.42939480004134,,5,303.41288620000705,303.42939480004134,303.42939480004134,0.04158079996705055,304.4360014999984,304.85695710004074,[0.17708333333333334],[0.2994791666666667],[1],[0],[0],[1.443313500029035],['target'],683392,001,2024-10-10_16h17.04.585,script,2024.2.1post4,59.89279190889549,2024-10-10 16h17.13.563138 +0530,
192,0,192,[-0.1015625],[0.2903645833333333],[1],[0],[0],[1.3655951999826357],['target'],192,0,192,0,304.90764130000025,,5,304.889175600023,304.90764130000025,304.90764130000025,0.031935500039253384,305.9191838000552,306.2554547000327,[-0.1015625],[0.2903645833333333],[1],[0],[0],[1.3655951999826357],['target'],683392,001,2024-10-10_16h17.04.585,script,2024.2.1post4,59.89279190889549,2024-10-10 16h17.13.563138 +0530,
193,0,193,[0.12890625],[-0.07552083333333333],[1],[0],[0],[1.1190881000366062],['target'],193,0,193,0,306.30184990004636,,5,306.28510160004953,306.30184990004636,306.30184990004636,0.029426599969156086,307.30209650000324,307.4048245000304,[0.12890625],[-0.07552083333333333],[1],[0],[0],[1.1190881000366062],['target'],683392,001,2024-10-10_16h17.04.585,script,2024.2.1post4,59.89279190889549,2024-10-10 16h17.13.563138 +0530,
194,0,194,[-0.19401041666666666],[-0.009114583333333334],[1],[0],[0],[0.7392544000176713],['target'],194,0,194,0,307.45585570001276,,5,307.4362919999985,307.45585570001276,307.45585570001276,0.03125259996159002,,308.1762431000243,[-0.19401041666666666],[-0.009114583333333334],[1],[0],[0],[0.7392544000176713],['target'],683392,001,2024-10-10_16h17.04.585,script,2024.2.1post4,59.89279190889549,2024-10-10 16h17.13.563138 +0530,
195,0,195,[-0.2903645833333333],[-0.2604166666666667],[1],[0],[0],[1.0472889000084251],['target'],195,0,195,0,308.2849474000395,,10,308.245776500029,308.2849474000395,308.2849474000395,0.0692527000210248,309.2908496000455,309.2938032000093,[-0.2903645833333333],[-0.2604166666666667],[1],[0],[0],[1.0472889000084251],['target'],683392,001,2024-10-10_16h17.04.585,script,2024.2.1post4,59.89279190889549,2024-10-10 16h17.13.563138 +0530,
196,0,196,[-0.1484375],[0.053385416666666664],[1],[0],[0],[0.9952639000257477],['target'],196,0,196,0,309.3529423000291,,5,309.3280425000121,309.3529423000291,309.3529423000291,0.03390229999786243,,310.32417750003515,[-0.1484375],[0.053385416666666664],[1],[0],[0],[0.9952639000257477],['target'],683392,001,2024-10-10_16h17.04.585,script,2024.2.1post4,59.89279190889549,2024-10-10 16h17.13.563138 +0530,
197,0,197,[0.4427083333333333],[0.328125],[1],[0],[0],[3.6749985000351444],['target'],197,0,197,0,310.43424820003565,,10,310.39547940000193,310.43424820003565,310.43424820003565,0.07092000002739951,311.43629340000916,314.07113570004003,[0.4427083333333333],[0.328125],[1],[0],[0],[3.6749985000351444],['target'],683392,001,2024-10-10_16h17.04.585,script,2024.2.1post4,59.89279190889549,2024-10-10 16h17.13.563138 +0530,
198,0,198,[0.21614583333333334],[-0.16796875],[1],[0],[0],[1.3394112999667414],['target'],198,0,198,0,314.1205541000236,,5,314.10283380001783,314.1205541000236,314.1205541000236,0.031421400024555624,315.1358968000277,315.4431281000143,[0.21614583333333334],[-0.16796875],[1],[0],[0],[1.3394112999667414],['target'],683392,001,2024-10-10_16h17.04.585,script,2024.2.1post4,59.89279190889549,2024-10-10 16h17.13.563138 +0530,
199,0,199,[-0.22395833333333334],[-0.18359375],[1],[0],[0],[0.9421842999872752],['target'],199,0,199,0,315.500264500035,,5,315.4788184000063,315.500264500035,315.500264500035,0.03541189996758476,,316.4217125000432,[-0.22395833333333334],[-0.18359375],[1],[0],[0],[0.9421842999872752],['target'],683392,001,2024-10-10_16h17.04.585,script,2024.2.1post4,59.89279190889549,2024-10-10 16h17.13.563138 +0530,
