thisN,thisTrialN,thisRepN,mouse.x,mouse.y,mouse.leftButton,mouse.midButton,mouse.rightButton,mouse.time,mouse.clicked_name,trials.thisRepN,trials.thisTrialN,trials.thisN,trials.thisIndex,thisRow.t,notes,num_distr,trial.started,fixation.started,target.started,mouse.started,fixation.stopped,trial.stopped,trials.mouse.x,trials.mouse.y,trials.mouse.leftButton,trials.mouse.midButton,trials.mouse.rightButton,trials.mouse.time,trials.mouse.clicked_name,participant,session,date,expName,psychopyVersion,frameRate,expStart,
0,0,0,[-0.3776041666666667],[0.010416666666666666],[1],[0],[0],[2.094256400014274],['target'],0,0,0,0,0.07903850002912804,,5,0.05365890002576634,0.07903850002912804,0.07903850002912804,0.05329780001193285,1.092475600016769,2.1486032000393607,[-0.3776041666666667],[0.010416666666666666],[1],[0],[0],[2.094256400014274],['target'],710056,001,2024-10-10_16h02.11.343,script,2024.2.1post4,59.871921998951926,2024-10-10 16h02.27.941815 +0530,
1,0,1,[0.08463541666666667],[0.4427083333333333],[1],[0],[0],[2.0809806000324897],['target'],1,0,1,0,2.2303920999984257,,10,2.203934199991636,2.2303920999984257,2.2303920999984257,0.05509929999243468,3.2413822000380605,4.285944900009781,[0.08463541666666667],[0.4427083333333333],[1],[0],[0],[2.0809806000324897],['target'],710056,001,2024-10-10_16h02.11.343,script,2024.2.1post4,59.871921998951926,2024-10-10 16h02.27.941815 +0530,
2,0,2,[0.13671875],[0.2825520833333333],[1],[0],[0],[1.0213320000329986],['target'],2,0,2,0,4.360553100006655,,10,4.336249599989969,4.360553100006655,4.360553100006655,0.05003049998776987,5.45541629998479,5.3582788000348955,[0.13671875],[0.2825520833333333],[1],[0],[0],[1.0213320000329986],['target'],710056,001,2024-10-10_16h02.11.343,script,2024.2.1post4,59.871921998951926,2024-10-10 16h02.27.941815 +0530,
3,0,3,[0.4986979166666667],[-0.21744791666666666],[1],[0],[0],[1.7070248000090942],['target'],3,0,3,0,5.45541629998479,,10,5.416480300016701,5.45541629998479,5.45541629998479,0.057861900015268475,6.45420690003084,7.1242569999885745,[0.4986979166666667],[-0.21744791666666666],[1],[0],[0],[1.7070248000090942],['target'],710056,001,2024-10-10_16h02.11.343,script,2024.2.1post4,59.871921998951926,2024-10-10 16h02.27.941815 +0530,
4,0,4,[0.4609375],[0.4153645833333333],[1],[0],[0],[2.344401900016237],['target'],4,0,4,0,7.219416400010232,,10,7.194617400004063,7.219416400010232,7.219416400010232,0.07005609996849671,8.224629900010768,9.539618499984499,[0.4609375],[0.4153645833333333],[1],[0],[0],[2.344401900016237],['target'],710056,001,2024-10-10_16h02.11.343,script,2024.2.1post4,59.871921998951926,2024-10-10 16h02.27.941815 +0530,
5,0,5,[0.4075520833333333],[-0.11328125],[1],[0],[0],[0.9522883000317961],[None],5,0,5,0,9.588022599986289,,5,9.571175699995365,9.588022599986289,9.588022599986289,0.031262699980288744,,10.524073300010059,[0.4075520833333333],[-0.11328125],[1],[0],[0],[0.9522883000317961],[None],710056,001,2024-10-10_16h02.11.343,script,2024.2.1post4,59.871921998951926,2024-10-10 16h02.27.941815 +0530,
6,0,6,[0.4322916666666667],[0.2955729166666667],[1],[0],[0],[2.0006032999954186],['target'],6,0,6,0,10.625130300002638,,10,10.596199400024489,10.625130300002638,10.625130300002638,0.07190039998386055,11.636907000036445,12.600608200009447,[0.4322916666666667],[0.2955729166666667],[1],[0],[0],[2.0006032999954186],['target'],710056,001,2024-10-10_16h02.11.343,script,2024.2.1post4,59.871921998951926,2024-10-10 16h02.27.941815 +0530,
7,0,7,[0.28515625],[0.005208333333333333],[1],[0],[0],[1.7570036000106484],['target'],7,0,7,0,12.650480700016487,,5,12.633097800018732,12.650480700016487,12.650480700016487,0.03210369998123497,13.653702799987514,14.390906299988274,[0.28515625],[0.005208333333333333],[1],[0],[0],[1.7570036000106484],['target'],710056,001,2024-10-10_16h02.11.343,script,2024.2.1post4,59.871921998951926,2024-10-10 16h02.27.941815 +0530,
8,0,8,[0.4440104166666667],[0.16145833333333334],[1],[0],[0],[2.2283537999610417],['target'],8,0,8,0,14.487382300023455,,10,14.461202600039542,14.487382300023455,14.487382300023455,0.07002199999988079,15.490705600008368,16.690255200024694,[0.4440104166666667],[0.16145833333333334],[1],[0],[0],[2.2283537999610417],['target'],710056,001,2024-10-10_16h02.11.343,script,2024.2.1post4,59.871921998951926,2024-10-10 16h02.27.941815 +0530,
9,0,9,[0.14713541666666666],[-0.048177083333333336],[1],[0],[0],[0.8894688000436872],['target'],9,0,9,0,16.7373131000204,,5,16.720729599997867,16.7373131000204,16.7373131000204,0.03016379999462515,,17.61095960001694,[0.14713541666666666],[-0.048177083333333336],[1],[0],[0],[0.8894688000436872],['target'],710056,001,2024-10-10_16h02.11.343,script,2024.2.1post4,59.871921998951926,2024-10-10 16h02.27.941815 +0530,
10,0,10,[0.3177083333333333],[-0.4557291666666667],[1],[0],[0],[1.1764953000238165],['target'],10,0,10,0,17.666433300008066,,5,17.647312599990983,17.666433300008066,17.666433300008066,0.036069100024178624,18.67273520003073,18.82462949998444,[0.3177083333333333],[-0.4557291666666667],[1],[0],[0],[1.1764953000238165],['target'],710056,001,2024-10-10_16h02.11.343,script,2024.2.1post4,59.871921998951926,2024-10-10 16h02.27.941815 +0530,
11,0,11,[-0.23307291666666666],[-0.14192708333333334],[1],[0],[0],[1.0611341000185348],['target'],11,0,11,0,18.88054420001572,,5,18.86059870000463,18.88054420001572,18.88054420001572,0.03568289999384433,19.8865912000183,19.92250879999483,[-0.23307291666666666],[-0.14192708333333334],[1],[0],[0],[1.0611341000185348],['target'],710056,001,2024-10-10_16h02.11.343,script,2024.2.1post4,59.871921998951926,2024-10-10 16h02.27.941815 +0530,
12,0,12,[-0.1875],[0.0],[1],[0],[0],[2.586991499993019],['target'],12,0,12,0,20.010703000007197,,10,19.982826800027397,20.010703000007197,20.010703000007197,0.060038399999029934,21.020166300004348,22.570620400016196,[-0.1875],[0.0],[1],[0],[0],[2.586991499993019],['target'],710056,001,2024-10-10_16h02.11.343,script,2024.2.1post4,59.871921998951926,2024-10-10 16h02.27.941815 +0530,
13,0,13,[-0.26953125],[0.2526041666666667],[1],[0],[0],[0.9860353000112809],['target'],13,0,13,0,22.632842599996366,,5,22.609840399993118,22.632842599996366,22.632842599996366,0.038864700007252395,,23.60090289998334,[-0.26953125],[0.2526041666666667],[1],[0],[0],[0.9860353000112809],['target'],710056,001,2024-10-10_16h02.11.343,script,2024.2.1post4,59.871921998951926,2024-10-10 16h02.27.941815 +0530,
14,0,14,[0.09765625],[-0.3515625],[1],[0],[0],[1.3502914999844506],['target'],14,0,14,0,23.724247100006323,,10,23.675370700017083,23.724247100006323,23.724247100006323,0.07412379997549579,24.73830020002788,25.02647139999317,[0.09765625],[-0.3515625],[1],[0],[0],[1.3502914999844506],['target'],710056,001,2024-10-10_16h02.11.343,script,2024.2.1post4,59.871921998951926,2024-10-10 16h02.27.941815 +0530,
15,0,15,[0.11588541666666667],[-0.4778645833333333],[1],[0],[0],[1.210727300029248],['target'],15,0,15,0,25.13138279999839,,10,25.098616800038144,25.13138279999839,25.13138279999839,0.07176119997166097,26.154974100005347,26.31001469999319,[0.11588541666666667],[-0.4778645833333333],[1],[0],[0],[1.210727300029248],['target'],710056,001,2024-10-10_16h02.11.343,script,2024.2.1post4,59.871921998951926,2024-10-10 16h02.27.941815 +0530,
16,0,16,[0.08463541666666667],[-0.032552083333333336],[1],[0],[0],[1.3945174000109546],['target'],16,0,16,0,26.36334340000758,,5,26.344765099987853,26.36334340000758,26.36334340000758,0.0339244999922812,27.371077899995726,27.73993280000286,[0.08463541666666667],[-0.032552083333333336],[1],[0],[0],[1.3945174000109546],['target'],710056,001,2024-10-10_16h02.11.343,script,2024.2.1post4,59.871921998951926,2024-10-10 16h02.27.941815 +0530,
17,0,17,[-0.19010416666666666],[0.3919270833333333],[1],[0],[0],[1.2848350999993272],['target'],17,0,17,0,27.788720800017472,,5,27.770862000004854,27.788720800017472,27.788720800017472,0.030697799986228347,28.803598000027705,29.056390099984128,[-0.19010416666666666],[0.3919270833333333],[1],[0],[0],[1.2848350999993272],['target'],710056,001,2024-10-10_16h02.11.343,script,2024.2.1post4,59.871921998951926,2024-10-10 16h02.27.941815 +0530,
18,0,18,[0.4661458333333333],[0.4440104166666667],[1],[0],[0],[1.3663128000334837],['target'],18,0,18,0,29.106886700028554,,5,29.088629100006074,29.106886700028554,29.106886700028554,0.03200530004687607,30.11964039999293,30.4555340000079,[0.4661458333333333],[0.4440104166666667],[1],[0],[0],[1.3663128000334837],['target'],710056,001,2024-10-10_16h02.11.343,script,2024.2.1post4,59.871921998951926,2024-10-10 16h02.27.941815 +0530,
19,0,19,[0.4388020833333333],[0.3125],[1],[0],[0],[2.33640510000987],['target'],19,0,19,0,30.503721199987922,,5,30.4858738000039,30.503721199987922,30.503721199987922,0.03010650002397597,31.50434280000627,32.82287550001638,[0.4388020833333333],[0.3125],[1],[0],[0],[2.33640510000987],['target'],710056,001,2024-10-10_16h02.11.343,script,2024.2.1post4,59.871921998951926,2024-10-10 16h02.27.941815 +0530,
20,0,20,[-0.3411458333333333],[0.453125],[1],[0],[0],[1.0558250999893062],['target'],20,0,20,0,32.86672059999546,,5,32.85137049999321,32.86672059999546,32.86672059999546,0.02826009999262169,33.871505599992815,33.907838199986145,[-0.3411458333333333],[0.453125],[1],[0],[0],[1.0558250999893062],['target'],710056,001,2024-10-10_16h02.11.343,script,2024.2.1post4,59.871921998951926,2024-10-10 16h02.27.941815 +0530,
21,0,21,[-0.44921875],[-0.009114583333333334],[1],[0],[0],[2.5978954000165686],['target'],21,0,21,0,34.00617990002502,,10,33.977795600018,34.00617990002502,34.00617990002502,0.0695671999710612,35.01955279998947,36.57637580001028,[-0.44921875],[-0.009114583333333334],[1],[0],[0],[2.5978954000165686],['target'],710056,001,2024-10-10_16h02.11.343,script,2024.2.1post4,59.871921998951926,2024-10-10 16h02.27.941815 +0530,
22,0,22,[0.16796875],[-0.21223958333333334],[1],[0],[0],[1.6066795999649912],['target'],22,0,22,0,36.673929000040516,,10,36.647534299991094,36.673929000040516,36.673929000040516,0.07082800002535805,37.68591510003898,38.254853999998886,[0.16796875],[-0.21223958333333334],[1],[0],[0],[1.6066795999649912],['target'],710056,001,2024-10-10_16h02.11.343,script,2024.2.1post4,59.871921998951926,2024-10-10 16h02.27.941815 +0530,
23,0,23,[-0.3984375],[-0.2903645833333333],[1],[0],[0],[0.993929999996908],['target'],23,0,23,0,38.356738700007554,,10,38.329240199993365,38.356738700007554,38.356738700007554,0.0740866000414826,,39.32380030001514,[-0.3984375],[-0.2903645833333333],[1],[0],[0],[0.993929999996908],['target'],710056,001,2024-10-10_16h02.11.343,script,2024.2.1post4,59.871921998951926,2024-10-10 16h02.27.941815 +0530,
24,0,24,[-0.09114583333333333],[-0.19401041666666666],[1],[0],[0],[0.9282215000130236],['target'],24,0,24,0,39.40867159998743,,10,39.381779599993024,39.40867159998743,39.40867159998743,0.057676500000525266,,40.31066210003337,[-0.09114583333333333],[-0.19401041666666666],[1],[0],[0],[0.9282215000130236],['target'],710056,001,2024-10-10_16h02.11.343,script,2024.2.1post4,59.871921998951926,2024-10-10 16h02.27.941815 +0530,
25,0,25,[-0.2916666666666667],[0.24479166666666666],[1],[0],[0],[1.0218710999470204],['target'],25,0,25,0,40.397760100022424,,10,40.370133300020825,40.397760100022424,40.397760100022424,0.059159900003578514,41.441416000016034,41.392516100022476,[-0.2916666666666667],[0.24479166666666666],[1],[0],[0],[1.0218710999470204],['target'],710056,001,2024-10-10_16h02.11.343,script,2024.2.1post4,59.871921998951926,2024-10-10 16h02.27.941815 +0530,
26,0,26,[-0.5026041666666666],[0.18359375],[1],[0],[0],[1.5165182000491768],['target'],26,0,26,0,41.441416000016034,,5,41.42326020001201,41.441416000016034,41.441416000016034,0.03042790002655238,42.45292720000725,42.94051919999765,[-0.5026041666666666],[0.18359375],[1],[0],[0],[1.5165182000491768],['target'],710056,001,2024-10-10_16h02.11.343,script,2024.2.1post4,59.871921998951926,2024-10-10 16h02.27.941815 +0530,
27,0,27,[-0.15885416666666666],[0.4557291666666667],[1],[0],[0],[1.2640942000434734],['target'],27,0,27,0,43.04391609999584,,10,43.007477200008,43.04391609999584,43.04391609999584,0.06669680000049993,44.05487079999875,44.2722219999996,[-0.15885416666666666],[0.4557291666666667],[1],[0],[0],[1.2640942000434734],['target'],710056,001,2024-10-10_16h02.11.343,script,2024.2.1post4,59.871921998951926,2024-10-10 16h02.27.941815 +0530,
28,0,28,[0.4388020833333333],[0.2903645833333333],[1],[0],[0],[1.6258535999804735],['target'],28,0,28,0,44.35435810004128,,10,44.329777500010096,44.35435810004128,44.35435810004128,0.05724500003270805,45.35366269998485,45.956593200040516,[0.4388020833333333],[0.2903645833333333],[1],[0],[0],[1.6258535999804735],['target'],710056,001,2024-10-10_16h02.11.343,script,2024.2.1post4,59.871921998951926,2024-10-10 16h02.27.941815 +0530,
29,0,29,[-0.08463541666666667],[0.4427083333333333],[1],[0],[0],[1.1849919000524096],['target'],29,0,29,0,46.047023000021,,10,46.01900959998602,46.047023000021,46.047023000021,0.06204309995518997,47.05374900001334,47.204611200024374,[-0.08463541666666667],[0.4427083333333333],[1],[0],[0],[1.1849919000524096],['target'],710056,001,2024-10-10_16h02.11.343,script,2024.2.1post4,59.871921998951926,2024-10-10 16h02.27.941815 +0530,
30,0,30,[-0.3502604166666667],[-0.3802083333333333],[1],[0],[0],[1.0949291000142694],['target'],30,0,30,0,47.26180550002027,,5,47.24351589998696,47.26180550002027,47.26180550002027,0.03858799999579787,48.26910909998696,48.339288700022735,[-0.3502604166666667],[-0.3802083333333333],[1],[0],[0],[1.0949291000142694],['target'],710056,001,2024-10-10_16h02.11.343,script,2024.2.1post4,59.871921998951926,2024-10-10 16h02.27.941815 +0530,
31,0,31,[0.09375],[-0.3723958333333333],[1],[0],[0],[1.3859324000077322],['target'],31,0,31,0,48.40330150001682,,5,48.38500060001388,48.40330150001682,48.40330150001682,0.04542029998265207,49.41887080000015,49.77147849998437,[0.09375],[-0.3723958333333333],[1],[0],[0],[1.3859324000077322],['target'],710056,001,2024-10-10_16h02.11.343,script,2024.2.1post4,59.871921998951926,2024-10-10 16h02.27.941815 +0530,
32,0,32,[-0.07682291666666667],[0.4973958333333333],[1],[0],[0],[1.371666399994865],['target'],32,0,32,0,49.81862939998973,,5,49.80149630003143,49.81862939998973,49.81862939998973,0.029764599981717765,50.819049199984875,51.17380540003069,[-0.07682291666666667],[0.4973958333333333],[1],[0],[0],[1.371666399994865],['target'],710056,001,2024-10-10_16h02.11.343,script,2024.2.1post4,59.871921998951926,2024-10-10 16h02.27.941815 +0530,
33,0,33,[0.23958333333333334],[0.17708333333333334],[1],[0],[0],[2.0101455000112765],['target'],33,0,33,0,51.26980469998671,,10,51.243715599994175,51.26980469998671,51.26980469998671,0.06965170003240928,52.2692005999852,53.254479499999434,[0.23958333333333334],[0.17708333333333334],[1],[0],[0],[2.0101455000112765],['target'],710056,001,2024-10-10_16h02.11.343,script,2024.2.1post4,59.871921998951926,2024-10-10 16h02.27.941815 +0530,
34,0,34,[-0.11067708333333333],[0.4934895833333333],[1],[0],[0],[1.5897727000410669],['target'],34,0,34,0,53.304154800018296,,5,53.28469160001259,53.304154800018296,53.304154800018296,0.029900800029281527,54.30246330000227,54.875297599995974,[-0.11067708333333333],[0.4934895833333333],[1],[0],[0],[1.5897727000410669],['target'],710056,001,2024-10-10_16h02.11.343,script,2024.2.1post4,59.871921998951926,2024-10-10 16h02.27.941815 +0530,
35,0,35,[-0.015625],[-0.4869791666666667],[1],[0],[0],[1.4060506999958307],['target'],35,0,35,0,54.97366850002436,,5,54.95066279999446,54.97366850002436,54.97366850002436,0.07504910003626719,55.98792159999721,56.35735050000949,[-0.015625],[-0.4869791666666667],[1],[0],[0],[1.4060506999958307],['target'],710056,001,2024-10-10_16h02.11.343,script,2024.2.1post4,59.871921998951926,2024-10-10 16h02.27.941815 +0530,
36,0,36,[0.4231770833333333],[0.16666666666666666],[1],[0],[0],[1.8750358000397682],['target'],36,0,36,0,56.46711760002654,,10,56.43516880000243,56.46711760002654,56.46711760002654,0.07739890000084415,57.47311020002235,58.31098710000515,[0.4231770833333333],[0.16666666666666666],[1],[0],[0],[1.8750358000397682],['target'],710056,001,2024-10-10_16h02.11.343,script,2024.2.1post4,59.871921998951926,2024-10-10 16h02.27.941815 +0530,
37,0,37,[0.3190104166666667],[-0.22916666666666666],[1],[0],[0],[5.210465000011027],['target'],37,0,37,0,58.36265040002763,,5,58.34321750001982,58.36265040002763,58.36265040002763,0.03184459998738021,59.36842020001495,63.55437999998685,[0.3190104166666667],[-0.22916666666666666],[1],[0],[0],[5.210465000011027],['target'],710056,001,2024-10-10_16h02.11.343,script,2024.2.1post4,59.871921998951926,2024-10-10 16h02.27.941815 +0530,
38,0,38,[-0.3268229166666667],[-0.17838541666666666],[1],[0],[0],[1.2186004999675788],['target'],38,0,38,0,63.60251799999969,,5,63.585161600029096,63.60251799999969,63.60251799999969,0.030464100011158735,64.6015351000242,64.80437900003744,[-0.3268229166666667],[-0.17838541666666666],[1],[0],[0],[1.2186004999675788],['target'],710056,001,2024-10-10_16h02.11.343,script,2024.2.1post4,59.871921998951926,2024-10-10 16h02.27.941815 +0530,
39,0,39,[-0.4479166666666667],[-0.1875],[1],[0],[0],[2.7508927999879234],['target'],39,0,39,0,64.85165730002336,,5,64.83507189998636,64.85165730002336,64.85165730002336,0.030466900032479316,65.8519154000096,67.58658390003256,[-0.4479166666666667],[-0.1875],[1],[0],[0],[2.7508927999879234],['target'],710056,001,2024-10-10_16h02.11.343,script,2024.2.1post4,59.871921998951926,2024-10-10 16h02.27.941815 +0530,
40,0,40,[-0.22395833333333334],[0.10807291666666667],[1],[0],[0],[1.0048352000303566],[None],40,0,40,0,67.63167450000765,,5,67.61562019999838,67.63167450000765,67.63167450000765,0.028809399984311312,68.71197659999598,68.62128399999347,[-0.22395833333333334],[0.10807291666666667],[1],[0],[0],[1.0048352000303566],[None],710056,001,2024-10-10_16h02.11.343,script,2024.2.1post4,59.871921998951926,2024-10-10 16h02.27.941815 +0530,
41,0,41,[0.2591145833333333],[-0.4244791666666667],[1],[0],[0],[1.3889530000160448],[None],41,0,41,0,68.71197659999598,,10,68.68392330000643,68.71197659999598,68.71197659999598,0.06237240001792088,69.71915980003541,70.07377690001158,[0.2591145833333333],[-0.4244791666666667],[1],[0],[0],[1.3889530000160448],[None],710056,001,2024-10-10_16h02.11.343,script,2024.2.1post4,59.871921998951926,2024-10-10 16h02.27.941815 +0530,
42,0,42,[0.36328125],[0.15885416666666666],[1],[0],[0],[1.1611732000019401],[None],42,0,42,0,70.12651269999333,,5,70.10848460003035,70.12651269999333,70.12651269999333,0.03437780000967905,71.1343659000122,71.27024340000935,[0.36328125],[0.15885416666666666],[1],[0],[0],[1.1611732000019401],[None],710056,001,2024-10-10_16h02.11.343,script,2024.2.1post4,59.871921998951926,2024-10-10 16h02.27.941815 +0530,
43,0,43,[-0.2916666666666667],[-0.42578125],[1],[0],[0],[1.2891748000402004],['target'],43,0,43,0,71.32750290003605,,5,71.29789350001374,71.32750290003605,71.32750290003605,0.02743479999480769,72.33532810001634,72.58782389998669,[-0.2916666666666667],[-0.42578125],[1],[0],[0],[1.2891748000402004],['target'],710056,001,2024-10-10_16h02.11.343,script,2024.2.1post4,59.871921998951926,2024-10-10 16h02.27.941815 +0530,
44,0,44,[0.3697916666666667],[-0.4505208333333333],[1],[0],[0],[1.8262977999984287],['target'],44,0,44,0,72.68403489998309,,10,72.64625500002876,72.68403489998309,72.68403489998309,0.05818100000033155,73.68515219999244,74.47327359998599,[0.3697916666666667],[-0.4505208333333333],[1],[0],[0],[1.8262977999984287],['target'],710056,001,2024-10-10_16h02.11.343,script,2024.2.1post4,59.871921998951926,2024-10-10 16h02.27.941815 +0530,
45,0,45,[0.10286458333333333],[-0.10807291666666667],[1],[0],[0],[0.8288117999909446],[None],45,0,45,0,74.52602829999523,,5,74.5078714999836,74.52602829999523,74.52602829999523,0.03424470004392788,,75.3373045999906,[0.10286458333333333],[-0.10807291666666667],[1],[0],[0],[0.8288117999909446],[None],710056,001,2024-10-10_16h02.11.343,script,2024.2.1post4,59.871921998951926,2024-10-10 16h02.27.941815 +0530,
46,0,46,[0.026041666666666668],[0.4609375],[1],[0],[0],[1.9327359999879263],[None],46,0,46,0,75.38666130002821,,5,75.36942190001719,75.38666130002821,75.38666130002821,0.03174069995293394,76.408307900012,77.30275770003209,[0.026041666666666668],[0.4609375],[1],[0],[0],[1.9327359999879263],[None],710056,001,2024-10-10_16h02.11.343,script,2024.2.1post4,59.871921998951926,2024-10-10 16h02.27.941815 +0530,
47,0,47,[0.3763020833333333],[-0.005208333333333333],[1],[0],[0],[2.197548799973447],['target'],47,0,47,0,77.39448110002559,,10,77.3668125999975,77.39448110002559,77.39448110002559,0.0638353000395,78.40045980003197,79.56503280001925,[0.3763020833333333],[-0.005208333333333333],[1],[0],[0],[2.197548799973447],['target'],710056,001,2024-10-10_16h02.11.343,script,2024.2.1post4,59.871921998951926,2024-10-10 16h02.27.941815 +0530,
48,0,48,[0.4453125],[0.3216145833333333],[1],[0],[0],[2.1916803999920376],['target'],48,0,48,0,79.66419889999088,,10,79.63301059999503,79.66419889999088,79.66419889999088,0.06758430000627413,80.67858130001696,81.82534049998503,[0.4453125],[0.3216145833333333],[1],[0],[0],[2.1916803999920376],['target'],710056,001,2024-10-10_16h02.11.343,script,2024.2.1post4,59.871921998951926,2024-10-10 16h02.27.941815 +0530,
49,0,49,[-0.02734375],[0.4244791666666667],[1],[0],[0],[1.215959599998314],['target'],49,0,49,0,81.91545820003375,,10,81.88626190001378,81.91545820003375,81.91545820003375,0.06051620002835989,82.93461950001074,83.10282650002046,[-0.02734375],[0.4244791666666667],[1],[0],[0],[1.215959599998314],['target'],710056,001,2024-10-10_16h02.11.343,script,2024.2.1post4,59.871921998951926,2024-10-10 16h02.27.941815 +0530,
50,0,50,[0.10546875],[0.09765625],[1],[0],[0],[1.2713332999846898],['target'],50,0,50,0,83.15079470002092,,5,83.1335698000039,83.15079470002092,83.15079470002092,0.030429000034928322,84.15487920003943,84.40556730004027,[0.10546875],[0.09765625],[1],[0],[0],[1.2713332999846898],['target'],710056,001,2024-10-10_16h02.11.343,script,2024.2.1post4,59.871921998951926,2024-10-10 16h02.27.941815 +0530,
51,0,51,[-0.4661458333333333],[-0.4140625],[1],[0],[0],[2.4480535000329837],['target'],51,0,51,0,84.49931220000144,,10,84.47053230000893,84.49931220000144,84.49931220000144,0.0646769999875687,85.51094370003557,86.91928349999944,[-0.4661458333333333],[-0.4140625],[1],[0],[0],[2.4480535000329837],['target'],710056,001,2024-10-10_16h02.11.343,script,2024.2.1post4,59.871921998951926,2024-10-10 16h02.27.941815 +0530,
52,0,52,[0.4869791666666667],[-0.041666666666666664],[1],[0],[0],[1.3893371000303887],[None],52,0,52,0,86.96498799999245,,5,86.94872220000252,86.96498799999245,86.96498799999245,0.029156000004149973,87.96681980002904,88.33873930003028,[0.4869791666666667],[-0.041666666666666664],[1],[0],[0],[1.3893371000303887],[None],710056,001,2024-10-10_16h02.11.343,script,2024.2.1post4,59.871921998951926,2024-10-10 16h02.27.941815 +0530,
53,0,53,[-0.09765625],[0.3046875],[1],[0],[0],[1.1664921999908984],['target'],53,0,53,0,88.4319467000314,,10,88.40326859999914,88.4319467000314,88.4319467000314,0.06423420005012304,89.4352936000214,89.5703935000347,[-0.09765625],[0.3046875],[1],[0],[0],[1.1664921999908984],['target'],710056,001,2024-10-10_16h02.11.343,script,2024.2.1post4,59.871921998951926,2024-10-10 16h02.27.941815 +0530,
54,0,54,[0.484375],[0.3151041666666667],[1],[0],[0],[1.5723292999900877],['target'],54,0,54,0,89.62416850001318,,5,89.60403009998845,89.62416850001318,89.62416850001318,0.03322799998568371,90.6299122000346,91.17774340003962,[0.484375],[0.3151041666666667],[1],[0],[0],[1.5723292999900877],['target'],710056,001,2024-10-10_16h02.11.343,script,2024.2.1post4,59.871921998951926,2024-10-10 16h02.27.941815 +0530,
55,0,55,[-0.328125],[-0.0546875],[1],[0],[0],[1.5830598999746144],['target'],55,0,55,0,91.27052409999305,,10,91.24143689998891,91.27052409999305,91.27052409999305,0.06337119999807328,92.28847710002447,92.82514750002883,[-0.328125],[-0.0546875],[1],[0],[0],[1.5830598999746144],['target'],710056,001,2024-10-10_16h02.11.343,script,2024.2.1post4,59.871921998951926,2024-10-10 16h02.27.941815 +0530,
56,0,56,[0.12109375],[-0.2604166666666667],[1],[0],[0],[1.094842000049539],['target'],56,0,56,0,92.88072389998706,,5,92.861195400008,92.88072389998706,92.88072389998706,0.035683499998413026,93.89146700000856,93.95665579999331,[0.12109375],[-0.2604166666666667],[1],[0],[0],[1.094842000049539],['target'],710056,001,2024-10-10_16h02.11.343,script,2024.2.1post4,59.871921998951926,2024-10-10 16h02.27.941815 +0530,
57,0,57,[-0.0625],[0.4127604166666667],[1],[0],[0],[1.263446400000248],['target'],57,0,57,0,94.05730829999084,,10,94.02641920000315,94.05730829999084,94.05730829999084,0.06942660000640899,95.06849560001865,95.29054180003004,[-0.0625],[0.4127604166666667],[1],[0],[0],[1.263446400000248],['target'],710056,001,2024-10-10_16h02.11.343,script,2024.2.1post4,59.871921998951926,2024-10-10 16h02.27.941815 +0530,
58,0,58,[0.057291666666666664],[0.4635416666666667],[1],[0],[0],[1.1301098999683745],['target'],58,0,58,0,95.39111419999972,,10,95.36069040000439,95.39111419999972,95.39111419999972,0.0697727000224404,96.39065800001845,96.49154439999256,[0.057291666666666664],[0.4635416666666667],[1],[0],[0],[1.1301098999683745],['target'],710056,001,2024-10-10_16h02.11.343,script,2024.2.1post4,59.871921998951926,2024-10-10 16h02.27.941815 +0530,
59,0,59,[-0.10807291666666667],[0.09895833333333333],[1],[0],[0],[1.6004327000118792],['target'],59,0,59,0,96.54651580000063,,5,96.52664320002077,96.54651580000063,96.54651580000063,0.03478990000439808,97.55279270000756,98.128990600002,[-0.10807291666666667],[0.09895833333333333],[1],[0],[0],[1.6004327000118792],['target'],710056,001,2024-10-10_16h02.11.343,script,2024.2.1post4,59.871921998951926,2024-10-10 16h02.27.941815 +0530,
60,0,60,[0.28125],[-0.22265625],[1],[0],[0],[2.129651199968066],['target'],60,0,60,0,98.2290309999953,,10,98.19694729999173,98.2290309999953,98.2290309999953,0.06760579999536276,99.2408292000182,100.32840749999741,[0.28125],[-0.22265625],[1],[0],[0],[2.129651199968066],['target'],710056,001,2024-10-10_16h02.11.343,script,2024.2.1post4,59.871921998951926,2024-10-10 16h02.27.941815 +0530,
61,0,61,[0.19791666666666666],[0.045572916666666664],[1],[0],[0],[0.9613748000119813],[None],61,0,61,0,100.38783150003292,,5,100.36453740001889,100.38783150003292,100.38783150003292,0.03562420001253486,,101.32875200000126,[0.19791666666666666],[0.045572916666666664],[1],[0],[0],[0.9613748000119813],[None],710056,001,2024-10-10_16h02.11.343,script,2024.2.1post4,59.871921998951926,2024-10-10 16h02.27.941815 +0530,
62,0,62,[0.5052083333333334],[-0.0546875],[1],[0],[0],[1.1541701999958605],[None],62,0,62,0,101.42309570004,,10,101.39430159999756,101.42309570004,101.42309570004,0.06514890003018081,102.43448090000311,102.5492130999919,[0.5052083333333334],[-0.0546875],[1],[0],[0],[1.1541701999958605],[None],710056,001,2024-10-10_16h02.11.343,script,2024.2.1post4,59.871921998951926,2024-10-10 16h02.27.941815 +0530,
63,0,63,[-0.24609375],[-0.4427083333333333],[1],[0],[0],[1.7179216999793425],[None],63,0,63,0,102.607507000037,,5,102.5871586999856,102.607507000037,102.607507000037,0.03748610004549846,103.6188242000062,104.305758100003,[-0.24609375],[-0.4427083333333333],[1],[0],[0],[1.7179216999793425],[None],710056,001,2024-10-10_16h02.11.343,script,2024.2.1post4,59.871921998951926,2024-10-10 16h02.27.941815 +0530,
64,0,64,[-0.3138020833333333],[0.421875],[1],[0],[0],[1.4752658000215888],[None],64,0,64,0,104.40711770002963,,10,104.37719740002649,104.40711770002963,104.40711770002963,0.07114720001118258,105.42306390003068,105.85304970003199,[-0.3138020833333333],[0.421875],[1],[0],[0],[1.4752658000215888],[None],710056,001,2024-10-10_16h02.11.343,script,2024.2.1post4,59.871921998951926,2024-10-10 16h02.27.941815 +0530,
65,0,65,[0.20442708333333334],[0.23307291666666666],[1],[0],[0],[1.5393095999606885],[None],65,0,65,0,105.9045098000206,,5,105.88583159999689,105.9045098000206,105.9045098000206,0.03244100004667416,106.90757899999153,107.42628670000704,[0.20442708333333334],[0.23307291666666666],[1],[0],[0],[1.5393095999606885],[None],710056,001,2024-10-10_16h02.11.343,script,2024.2.1post4,59.871921998951926,2024-10-10 16h02.27.941815 +0530,
66,0,66,[0.4440104166666667],[0.3450520833333333],[1],[0],[0],[2.4525482999742962],['target'],66,0,66,0,107.5193517000298,,10,107.48982290003914,107.5193517000298,107.5193517000298,0.06320350000169128,108.52913969999645,109.94374700001208,[0.4440104166666667],[0.3450520833333333],[1],[0],[0],[2.4525482999742962],['target'],710056,001,2024-10-10_16h02.11.343,script,2024.2.1post4,59.871921998951926,2024-10-10 16h02.27.941815 +0530,
67,0,67,[0.06901041666666667],[-0.12890625],[1],[0],[0],[1.1410587999853306],['target'],67,0,67,0,110.03739559999667,,10,110.00699110003188,110.03739559999667,110.03739559999667,0.0622330000041984,111.05079090001527,111.1486784000299,[0.06901041666666667],[-0.12890625],[1],[0],[0],[1.1410587999853306],['target'],710056,001,2024-10-10_16h02.11.343,script,2024.2.1post4,59.871921998951926,2024-10-10 16h02.27.941815 +0530,
68,0,68,[-0.3033854166666667],[-0.10546875],[1],[0],[0],[1.109063400013838],['target'],68,0,68,0,111.25057550001657,,10,111.21699640003499,111.25057550001657,111.25057550001657,0.06796309998026118,112.2615422999952,112.32775070000207,[-0.3033854166666667],[-0.10546875],[1],[0],[0],[1.109063400013838],['target'],710056,001,2024-10-10_16h02.11.343,script,2024.2.1post4,59.871921998951926,2024-10-10 16h02.27.941815 +0530,
69,0,69,[-0.48828125],[0.19140625],[1],[0],[0],[1.2775202000048012],[None],69,0,69,0,112.38579299999401,,5,112.36484420002671,112.38579299999401,112.38579299999401,0.03661499998997897,113.39553430001251,113.64563400001498,[-0.48828125],[0.19140625],[1],[0],[0],[1.2775202000048012],[None],710056,001,2024-10-10_16h02.11.343,script,2024.2.1post4,59.871921998951926,2024-10-10 16h02.27.941815 +0530,
70,0,70,[0.09635416666666667],[-0.009114583333333334],[1],[0],[0],[1.574100100027863],[None],70,0,70,0,113.70083849999355,,5,113.6799892000272,113.70083849999355,113.70083849999355,0.034036299970466644,114.70643210003618,115.25487770000473,[0.09635416666666667],[-0.009114583333333334],[1],[0],[0],[1.574100100027863],[None],710056,001,2024-10-10_16h02.11.343,script,2024.2.1post4,59.871921998951926,2024-10-10 16h02.27.941815 +0530,
71,0,71,[-0.4596354166666667],[0.04296875],[1],[0],[0],[1.2011885999818332],['target'],71,0,71,0,115.31163340003695,,5,115.28985739999916,115.31163340003695,115.31163340003695,0.03466649999609217,116.33319670002675,116.49250320001738,[-0.4596354166666667],[0.04296875],[1],[0],[0],[1.2011885999818332],['target'],710056,001,2024-10-10_16h02.11.343,script,2024.2.1post4,59.871921998951926,2024-10-10 16h02.27.941815 +0530,
72,0,72,[0.06901041666666667],[-0.17708333333333334],[1],[0],[0],[1.1156461000209674],['target'],72,0,72,0,116.54453000001376,,5,116.52631520002615,116.54453000001376,116.54453000001376,0.03350070002488792,117.55172590003349,117.64335309999296,[0.06901041666666667],[-0.17708333333333334],[1],[0],[0],[1.1156461000209674],['target'],710056,001,2024-10-10_16h02.11.343,script,2024.2.1post4,59.871921998951926,2024-10-10 16h02.27.941815 +0530,
73,0,73,[0.30078125],[0.2760416666666667],[1],[0],[0],[1.3388786000432447],['target'],73,0,73,0,117.74390190001577,,10,117.71348620002391,117.74390190001577,117.74390190001577,0.06946810003137216,118.76676540001063,119.05299430002924,[0.30078125],[0.2760416666666667],[1],[0],[0],[1.3388786000432447],['target'],710056,001,2024-10-10_16h02.11.343,script,2024.2.1post4,59.871921998951926,2024-10-10 16h02.27.941815 +0530,
74,0,74,[-0.2265625],[0.3541666666666667],[1],[0],[0],[1.4162367000244558],['target'],74,0,74,0,119.10973740002373,,5,119.08790530002443,119.10973740002373,119.10973740002373,0.034562200016807765,120.12300570000662,120.50480470003095,[-0.2265625],[0.3541666666666667],[1],[0],[0],[1.4162367000244558],['target'],710056,001,2024-10-10_16h02.11.343,script,2024.2.1post4,59.871921998951926,2024-10-10 16h02.27.941815 +0530,
75,0,75,[-0.13020833333333334],[0.3919270833333333],[1],[0],[0],[1.2830165000050329],['target'],75,0,75,0,120.62864820001414,,10,120.57738000003155,120.62864820001414,120.62864820001414,0.07213440001942217,121.64043520000996,121.86282760003814,[-0.13020833333333334],[0.3919270833333333],[1],[0],[0],[1.2830165000050329],['target'],710056,001,2024-10-10_16h02.11.343,script,2024.2.1post4,59.871921998951926,2024-10-10 16h02.27.941815 +0530,
76,0,76,[-0.2903645833333333],[0.27734375],[1],[0],[0],[2.120752899965737],['target'],76,0,76,0,121.96325010003056,,10,121.93329690000974,121.96325010003056,121.96325010003056,0.06998770002974197,122.98326599999564,124.05487530003302,[-0.2903645833333333],[0.27734375],[1],[0],[0],[2.120752899965737],['target'],710056,001,2024-10-10_16h02.11.343,script,2024.2.1post4,59.871921998951926,2024-10-10 16h02.27.941815 +0530,
77,0,77,[-0.09895833333333333],[0.453125],[1],[0],[0],[3.419790399959311],['target'],77,0,77,0,124.109271000023,,5,124.08917900000233,124.109271000023,124.109271000023,0.03391530003864318,125.11718300002394,127.51059940003324,[-0.09895833333333333],[0.453125],[1],[0],[0],[3.419790399959311],['target'],710056,001,2024-10-10_16h02.11.343,script,2024.2.1post4,59.871921998951926,2024-10-10 16h02.27.941815 +0530,
78,0,78,[0.078125],[0.4596354166666667],[1],[0],[0],[1.8108607000322081],['target'],78,0,78,0,127.60923460003687,,10,127.57910820003599,127.60923460003687,127.60923460003687,0.06819229997927323,128.61991950002266,129.39073769998504,[0.078125],[0.4596354166666667],[1],[0],[0],[1.8108607000322081],['target'],710056,001,2024-10-10_16h02.11.343,script,2024.2.1post4,59.871921998951926,2024-10-10 16h02.27.941815 +0530,
79,0,79,[0.4830729166666667],[0.3046875],[1],[0],[0],[3.8000751999788918],['target'],79,0,79,0,129.48522410000442,,10,129.4547340000281,129.48522410000442,129.48522410000442,0.0636120000272058,130.48853989999043,133.2554805999971,[0.4830729166666667],[0.3046875],[1],[0],[0],[3.8000751999788918],['target'],710056,001,2024-10-10_16h02.11.343,script,2024.2.1post4,59.871921998951926,2024-10-10 16h02.27.941815 +0530,
80,0,80,[-0.38671875],[-0.4986979166666667],[1],[0],[0],[2.1283492000075057],['target'],80,0,80,0,133.3552437000326,,10,133.32551140000578,133.3552437000326,133.3552437000326,0.069668400043156,134.37178190000122,135.45453779998934,[-0.38671875],[-0.4986979166666667],[1],[0],[0],[2.1283492000075057],['target'],710056,001,2024-10-10_16h02.11.343,script,2024.2.1post4,59.871921998951926,2024-10-10 16h02.27.941815 +0530,
81,0,81,[-0.12239583333333333],[0.4466145833333333],[1],[0],[0],[1.42003510001814],['target'],81,0,81,0,135.50771299999906,,5,135.48846170003526,135.50771299999906,135.50771299999906,0.03355369996279478,136.5209941000212,136.9102237999905,[-0.12239583333333333],[0.4466145833333333],[1],[0],[0],[1.42003510001814],['target'],710056,001,2024-10-10_16h02.11.343,script,2024.2.1post4,59.871921998951926,2024-10-10 16h02.27.941815 +0530,
82,0,82,[0.140625],[0.040364583333333336],[1],[0],[0],[1.6227418999769725],['target'],82,0,82,0,137.00159410003107,,10,136.97320489998674,137.00159410003107,137.00159410003107,0.0626425999798812,138.0112351999851,138.59776660002535,[0.140625],[0.040364583333333336],[1],[0],[0],[1.6227418999769725],['target'],710056,001,2024-10-10_16h02.11.343,script,2024.2.1post4,59.871921998951926,2024-10-10 16h02.27.941815 +0530,
83,0,83,[0.1796875],[0.3177083333333333],[1],[0],[0],[1.173837399983313],['target'],83,0,83,0,138.65271870000288,,5,138.63401989999693,138.65271870000288,138.65271870000288,0.03586070000892505,139.66597650002223,139.8093566999887,[0.1796875],[0.3177083333333333],[1],[0],[0],[1.173837399983313],['target'],710056,001,2024-10-10_16h02.11.343,script,2024.2.1post4,59.871921998951926,2024-10-10 16h02.27.941815 +0530,
84,0,84,[-0.4752604166666667],[0.005208333333333333],[1],[0],[0],[1.3892517000203952],['target'],84,0,84,0,139.90960419998737,,10,139.87914650002494,139.90960419998737,139.90960419998737,0.06904139998368919,140.92281120002735,141.26901670004008,[-0.4752604166666667],[0.005208333333333333],[1],[0],[0],[1.3892517000203952],['target'],710056,001,2024-10-10_16h02.11.343,script,2024.2.1post4,59.871921998951926,2024-10-10 16h02.27.941815 +0530,
85,0,85,[-0.07161458333333333],[0.3802083333333333],[1],[0],[0],[2.235329699993599],[None],85,0,85,0,141.32204970001476,,5,141.3026560000144,141.32204970001476,141.32204970001476,0.03327539999736473,142.3380878000171,143.53865070000757,[-0.07161458333333333],[0.3802083333333333],[1],[0],[0],[2.235329699993599],[None],710056,001,2024-10-10_16h02.11.343,script,2024.2.1post4,59.871921998951926,2024-10-10 16h02.27.941815 +0530,
86,0,86,[-0.16796875],[-0.4296875],[1],[0],[0],[2.0392953000264242],['target'],86,0,86,0,143.64772870001616,,10,143.61651289998554,143.64772870001616,143.64772870001616,0.07760910002980381,144.6659961999976,145.6565972000244,[-0.16796875],[-0.4296875],[1],[0],[0],[2.0392953000264242],['target'],710056,001,2024-10-10_16h02.11.343,script,2024.2.1post4,59.871921998951926,2024-10-10 16h02.27.941815 +0530,
87,0,87,[0.4088541666666667],[0.3541666666666667],[1],[0],[0],[1.5549394999979995],['target'],87,0,87,0,145.71073630003957,,5,145.69156760000624,145.71073630003957,145.71073630003957,0.03459390002535656,146.72071810002672,147.24716349999653,[0.4088541666666667],[0.3541666666666667],[1],[0],[0],[1.5549394999979995],['target'],710056,001,2024-10-10_16h02.11.343,script,2024.2.1post4,59.871921998951926,2024-10-10 16h02.27.941815 +0530,
88,0,88,[-0.5078125],[-0.359375],[1],[0],[0],[1.5275605999631807],['target'],88,0,88,0,147.35176089999732,,10,147.3186435000389,147.35176089999732,147.35176089999732,0.07119180000154302,148.36756009998498,148.84684499999275,[-0.5078125],[-0.359375],[1],[0],[0],[1.5275605999631807],['target'],710056,001,2024-10-10_16h02.11.343,script,2024.2.1post4,59.871921998951926,2024-10-10 16h02.27.941815 +0530,
89,0,89,[-0.13932291666666666],[-0.15364583333333334],[1],[0],[0],[1.2003576999995857],['target'],89,0,89,0,148.90242719999515,,5,148.88247370003955,148.90242719999515,148.90242719999515,0.03528750000987202,149.91560260002734,150.08341720001772,[-0.13932291666666666],[-0.15364583333333334],[1],[0],[0],[1.2003576999995857],['target'],710056,001,2024-10-10_16h02.11.343,script,2024.2.1post4,59.871921998951926,2024-10-10 16h02.27.941815 +0530,
90,0,90,[0.234375],[0.41796875],[1],[0],[0],[2.7570358000230044],['target'],90,0,90,0,150.1700269000139,,10,150.1432543999981,150.1700269000139,150.1700269000139,0.059616200043819845,151.18135530001018,152.90104060003068,[0.234375],[0.41796875],[1],[0],[0],[2.7570358000230044],['target'],710056,001,2024-10-10_16h02.11.343,script,2024.2.1post4,59.871921998951926,2024-10-10 16h02.27.941815 +0530,
91,0,91,[-0.375],[0.009114583333333334],[1],[0],[0],[1.2505272999987938],['target'],91,0,91,0,152.95594880002318,,5,152.93653140001697,152.95594880002318,152.95594880002318,0.03498169995145872,153.9672036000411,154.18772849999368,[-0.375],[0.009114583333333334],[1],[0],[0],[1.2505272999987938],['target'],710056,001,2024-10-10_16h02.11.343,script,2024.2.1post4,59.871921998951926,2024-10-10 16h02.27.941815 +0530,
92,0,92,[0.21614583333333334],[-0.23697916666666666],[1],[0],[0],[2.965325999946799],['target'],92,0,92,0,154.2545603000326,,5,154.23567399999592,154.2545603000326,154.2545603000326,0.047668499988503754,155.25420520000625,157.20169290003832,[0.21614583333333334],[-0.23697916666666666],[1],[0],[0],[2.965325999946799],['target'],710056,001,2024-10-10_16h02.11.343,script,2024.2.1post4,59.871921998951926,2024-10-10 16h02.27.941815 +0530,
93,0,93,[0.25],[-0.15104166666666666],[1],[0],[0],[0.8510689999675378],['target'],93,0,93,0,157.30262790003326,,10,157.27054840000346,157.30262790003326,157.30262790003326,0.06858859997009858,,158.12273130001267,[0.25],[-0.15104166666666666],[1],[0],[0],[0.8510689999675378],['target'],710056,001,2024-10-10_16h02.11.343,script,2024.2.1post4,59.871921998951926,2024-10-10 16h02.27.941815 +0530,
94,0,94,[0.3880208333333333],[-0.2421875],[1],[0],[0],[1.2133518000482582],[None],94,0,94,0,158.1912862000172,,5,158.17101460002596,158.1912862000172,158.1912862000172,0.04790200002025813,159.19852360000368,159.38501560001168,[0.3880208333333333],[-0.2421875],[1],[0],[0],[1.2133518000482582],[None],710056,001,2024-10-10_16h02.11.343,script,2024.2.1post4,59.871921998951926,2024-10-10 16h02.27.941815 +0530,
95,0,95,[0.10416666666666667],[0.18880208333333334],[1],[0],[0],[0.9087583000073209],['target'],95,0,95,0,159.45212149998406,,5,159.43144640000537,159.45212149998406,159.45212149998406,0.0459448000183329,,160.34188259998336,[0.10416666666666667],[0.18880208333333334],[1],[0],[0],[0.9087583000073209],['target'],710056,001,2024-10-10_16h02.11.343,script,2024.2.1post4,59.871921998951926,2024-10-10 16h02.27.941815 +0530,
96,0,96,[0.3229166666666667],[-0.19270833333333334],[1],[0],[0],[0.9039413999998942],[None],96,0,96,0,160.40382489998592,,5,160.38076840003487,160.40382489998592,160.40382489998592,0.03841380000812933,,161.28563990001567,[0.3229166666666667],[-0.19270833333333334],[1],[0],[0],[0.9039413999998942],[None],710056,001,2024-10-10_16h02.11.343,script,2024.2.1post4,59.871921998951926,2024-10-10 16h02.27.941815 +0530,
97,0,97,[-0.3828125],[0.3294270833333333],[1],[0],[0],[1.4786760000279173],['target'],97,0,97,0,161.3919326000032,,10,161.3590991999954,161.3919326000032,161.3919326000032,0.07306000002427027,162.40205440000864,162.83841229998507,[-0.3828125],[0.3294270833333333],[1],[0],[0],[1.4786760000279173],['target'],710056,001,2024-10-10_16h02.11.343,script,2024.2.1post4,59.871921998951926,2024-10-10 16h02.27.941815 +0530,
98,0,98,[0.40625],[-0.08723958333333333],[1],[0],[0],[2.123746700002812],['target'],98,0,98,0,162.89886600000318,,5,162.87614680000115,162.89886600000318,162.89886600000318,0.03738090000115335,163.91405329998815,165.00052950001555,[0.40625],[-0.08723958333333333],[1],[0],[0],[2.123746700002812],['target'],710056,001,2024-10-10_16h02.11.343,script,2024.2.1post4,59.871921998951926,2024-10-10 16h02.27.941815 +0530,
99,0,99,[0.4153645833333333],[0.31640625],[1],[0],[0],[1.998951899993699],['target'],99,0,99,0,165.10157320002327,,10,165.06974830001127,165.10157320002327,165.10157320002327,0.06895750004332513,166.1143497999874,167.06948579999153,[0.4153645833333333],[0.31640625],[1],[0],[0],[1.998951899993699],['target'],710056,001,2024-10-10_16h02.11.343,script,2024.2.1post4,59.871921998951926,2024-10-10 16h02.27.941815 +0530,
100,0,100,[0.20703125],[-0.4674479166666667],[1],[0],[0],[2.184673300012946],['target'],100,0,100,0,167.1651810000185,,10,167.13410349999322,167.1651810000185,167.1651810000185,0.06426710000960156,168.1658419999876,169.31956129998434,[0.20703125],[-0.4674479166666667],[1],[0],[0],[2.184673300012946],['target'],710056,001,2024-10-10_16h02.11.343,script,2024.2.1post4,59.871921998951926,2024-10-10 16h02.27.941815 +0530,
101,0,101,[-0.5078125],[0.20442708333333334],[1],[0],[0],[1.3284324999549426],['target'],101,0,101,0,169.4218217000016,,10,169.38829510001233,169.4218217000016,169.4218217000016,0.06836450000992045,170.42273130000103,170.71831760002533,[-0.5078125],[0.20442708333333334],[1],[0],[0],[1.3284324999549426],['target'],710056,001,2024-10-10_16h02.11.343,script,2024.2.1post4,59.871921998951926,2024-10-10 16h02.27.941815 +0530,
102,0,102,[0.23697916666666666],[0.42578125],[1],[0],[0],[1.002637900004629],['target'],102,0,102,0,170.7750587000046,,5,170.75360679998994,170.7750587000046,170.7750587000046,0.03481929999543354,,171.75774830003502,[0.23697916666666666],[0.42578125],[1],[0],[0],[1.002637900004629],['target'],710056,001,2024-10-10_16h02.11.343,script,2024.2.1post4,59.871921998951926,2024-10-10 16h02.27.941815 +0530,
103,0,103,[-0.16015625],[-0.016927083333333332],[1],[0],[0],[1.2434892000164837],['target'],103,0,103,0,171.81692220002878,,5,171.79495880001923,171.81692220002878,171.81692220002878,0.036729699990246445,172.83141640003305,173.04028840002138,[-0.16015625],[-0.016927083333333332],[1],[0],[0],[1.2434892000164837],['target'],710056,001,2024-10-10_16h02.11.343,script,2024.2.1post4,59.871921998951926,2024-10-10 16h02.27.941815 +0530,
104,0,104,[-0.3463541666666667],[-0.04296875],[1],[0],[0],[0.8383085999521427],['target'],104,0,104,0,173.14954439998837,,10,173.1154641000321,173.14954439998837,173.14954439998837,0.07498820003820583,,173.95460290001938,[-0.3463541666666667],[-0.04296875],[1],[0],[0],[0.8383085999521427],['target'],710056,001,2024-10-10_16h02.11.343,script,2024.2.1post4,59.871921998951926,2024-10-10 16h02.27.941815 +0530,
105,0,105,[-0.4583333333333333],[-0.14973958333333334],[1],[0],[0],[1.0109893000335433],['target'],105,0,105,0,174.05877350002993,,10,174.02673219999997,174.05877350002993,174.05877350002993,0.0717653000028804,,175.0385448000161,[-0.4583333333333333],[-0.14973958333333334],[1],[0],[0],[1.0109893000335433],['target'],710056,001,2024-10-10_16h02.11.343,script,2024.2.1post4,59.871921998951926,2024-10-10 16h02.27.941815 +0530,
106,0,106,[-0.3776041666666667],[-0.2760416666666667],[1],[0],[0],[1.2258782999706455],['target'],106,0,106,0,175.14130980003392,,10,175.1104217999964,175.14130980003392,175.14130980003392,0.07151370000792667,176.14762940001674,176.33710320002865,[-0.3776041666666667],[-0.2760416666666667],[1],[0],[0],[1.2258782999706455],['target'],710056,001,2024-10-10_16h02.11.343,script,2024.2.1post4,59.871921998951926,2024-10-10 16h02.27.941815 +0530,
107,0,107,[-0.036458333333333336],[0.44140625],[1],[0],[0],[1.3483014999656007],['target'],107,0,107,0,176.39362540002912,,5,176.37376390001737,176.39362540002912,176.39362540002912,0.03631579998182133,177.39762840000913,177.73040450003464,[-0.036458333333333336],[0.44140625],[1],[0],[0],[1.3483014999656007],['target'],710056,001,2024-10-10_16h02.11.343,script,2024.2.1post4,59.871921998951926,2024-10-10 16h02.27.941815 +0530,
108,0,108,[-0.21484375],[-0.3645833333333333],[1],[0],[0],[1.5171909000491723],['target'],108,0,108,0,177.83332989999326,,10,177.8020084000309,177.83332989999326,177.83332989999326,0.07127870002295822,178.83687860000646,179.3198465000023,[-0.21484375],[-0.3645833333333333],[1],[0],[0],[1.5171909000491723],['target'],710056,001,2024-10-10_16h02.11.343,script,2024.2.1post4,59.871921998951926,2024-10-10 16h02.27.941815 +0530,
109,0,109,[0.17317708333333334],[0.1875],[1],[0],[0],[1.1424196000443771],['target'],109,0,109,0,179.37716770003317,,5,179.35627119999845,179.37716770003317,179.37716770003317,0.03607700002612546,180.37987870001234,180.49914040003205,[0.17317708333333334],[0.1875],[1],[0],[0],[1.1424196000443771],['target'],710056,001,2024-10-10_16h02.11.343,script,2024.2.1post4,59.871921998951926,2024-10-10 16h02.27.941815 +0530,
110,0,110,[-0.0625],[-0.4440104166666667],[1],[0],[0],[2.0446136000100523],['target'],110,0,110,0,180.60687070002314,,10,180.5714781000279,180.60687070002314,180.60687070002314,0.07208649994572625,181.63048620003974,182.61690439999802,[-0.0625],[-0.4440104166666667],[1],[0],[0],[2.0446136000100523],['target'],710056,001,2024-10-10_16h02.11.343,script,2024.2.1post4,59.871921998951926,2024-10-10 16h02.27.941815 +0530,
111,0,111,[0.24479166666666666],[0.5],[1],[0],[0],[1.1823194000171497],['target'],111,0,111,0,182.67355140001746,,5,182.6530681999866,182.67355140001746,182.67355140001746,0.03579550003632903,183.684750800021,183.83603489998495,[0.24479166666666666],[0.5],[1],[0],[0],[1.1823194000171497],['target'],710056,001,2024-10-10_16h02.11.343,script,2024.2.1post4,59.871921998951926,2024-10-10 16h02.27.941815 +0530,
112,0,112,[0.11067708333333333],[0.20052083333333334],[1],[0],[0],[1.4485654999734834],['target'],112,0,112,0,183.9368361000088,,10,183.9053719000076,183.9368361000088,183.9368361000088,0.069059900008142,184.95227270002943,185.35480179998558,[0.11067708333333333],[0.20052083333333334],[1],[0],[0],[1.4485654999734834],['target'],710056,001,2024-10-10_16h02.11.343,script,2024.2.1post4,59.871921998951926,2024-10-10 16h02.27.941815 +0530,
113,0,113,[0.02734375],[-0.022135416666666668],[1],[0],[0],[1.7629005000344478],['target'],113,0,113,0,185.4575509999995,,10,185.42560930002946,185.4575509999995,185.4575509999995,0.0704289999557659,186.4679661000264,187.1899468000047,[0.02734375],[-0.022135416666666668],[1],[0],[0],[1.7629005000344478],['target'],710056,001,2024-10-10_16h02.11.343,script,2024.2.1post4,59.871921998951926,2024-10-10 16h02.27.941815 +0530,
114,0,114,[-0.08723958333333333],[-0.2786458333333333],[1],[0],[0],[3.2416677000001073],['target'],114,0,114,0,187.24889709998388,,5,187.226458500023,187.24889709998388,187.24889709998388,0.03608489996986464,188.2638460000162,190.46882539999206,[-0.08723958333333333],[-0.2786458333333333],[1],[0],[0],[3.2416677000001073],['target'],710056,001,2024-10-10_16h02.11.343,script,2024.2.1post4,59.871921998951926,2024-10-10 16h02.27.941815 +0530,
115,0,115,[0.015625],[-0.3046875],[1],[0],[0],[1.0492000000085682],['target'],115,0,115,0,190.52677649998805,,5,190.50607730000047,190.52677649998805,190.52677649998805,0.03695449995575473,191.5359735999955,191.55863789998693,[0.015625],[-0.3046875],[1],[0],[0],[1.0492000000085682],['target'],710056,001,2024-10-10_16h02.11.343,script,2024.2.1post4,59.871921998951926,2024-10-10 16h02.27.941815 +0530,
116,0,116,[0.0013020833333333333],[0.2721354166666667],[1],[0],[0],[1.0384995000204071],['target'],116,0,116,0,191.61850109999068,,5,191.59588390000863,191.61850109999068,191.61850109999068,0.03652849997160956,192.63215449999552,192.63502350001363,[0.0013020833333333333],[0.2721354166666667],[1],[0],[0],[1.0384995000204071],['target'],710056,001,2024-10-10_16h02.11.343,script,2024.2.1post4,59.871921998951926,2024-10-10 16h02.27.941815 +0530,
117,0,117,[0.3919270833333333],[-0.10807291666666667],[1],[0],[0],[1.360791800019797],[None],117,0,117,0,192.69395360001363,,5,192.67161540000234,192.69395360001363,192.69395360001363,0.0363064999692142,193.70062820002204,194.03303540003253,[0.3919270833333333],[-0.10807291666666667],[1],[0],[0],[1.360791800019797],[None],710056,001,2024-10-10_16h02.11.343,script,2024.2.1post4,59.871921998951926,2024-10-10 16h02.27.941815 +0530,
118,0,118,[-0.19010416666666666],[0.015625],[1],[0],[0],[1.409477999957744],['target'],118,0,118,0,194.09140109998407,,5,194.07031550002284,194.09140109998407,194.09140109998407,0.03697339998325333,195.09529470000416,195.48040430003311,[-0.19010416666666666],[0.015625],[1],[0],[0],[1.409477999957744],['target'],710056,001,2024-10-10_16h02.11.343,script,2024.2.1post4,59.871921998951926,2024-10-10 16h02.27.941815 +0530,
119,0,119,[0.3723958333333333],[-0.11848958333333333],[1],[0],[0],[1.8012600999791175],['target'],119,0,119,0,195.5333687000093,,5,195.51400439999998,195.5333687000093,195.5333687000093,0.03337629995075986,196.53589850000571,197.3158623999916,[0.3723958333333333],[-0.11848958333333333],[1],[0],[0],[1.8012600999791175],['target'],710056,001,2024-10-10_16h02.11.343,script,2024.2.1post4,59.871921998951926,2024-10-10 16h02.27.941815 +0530,
120,0,120,[0.010416666666666666],[-0.15364583333333334],[1],[0],[0],[1.4183420999906957],['target'],120,0,120,0,197.42487320001237,,10,197.38521650002804,197.42487320001237,197.42487320001237,0.0691029999870807,198.43211610004073,198.805010400014,[0.010416666666666666],[-0.15364583333333334],[1],[0],[0],[1.4183420999906957],['target'],710056,001,2024-10-10_16h02.11.343,script,2024.2.1post4,59.871921998951926,2024-10-10 16h02.27.941815 +0530,
121,0,121,[0.10026041666666667],[-0.053385416666666664],[1],[0],[0],[1.0258152999449521],['target'],121,0,121,0,198.86399099999107,,5,198.84104900003877,198.86399099999107,198.86399099999107,0.035648400022182614,199.8639964000322,199.8677308000042,[0.10026041666666667],[-0.053385416666666664],[1],[0],[0],[1.0258152999449521],['target'],710056,001,2024-10-10_16h02.11.343,script,2024.2.1post4,59.871921998951926,2024-10-10 16h02.27.941815 +0530,
122,0,122,[-0.046875],[-0.3971354166666667],[0],[0],[1],[1.9469384000403807],['target'],122,0,122,0,199.9840332000167,,10,199.9519196000183,199.9840332000167,199.9840332000167,0.08383529999991879,201.00056080002105,201.89949680003338,[-0.046875],[-0.3971354166666667],[0],[0],[1],[1.9469384000403807],['target'],710056,001,2024-10-10_16h02.11.343,script,2024.2.1post4,59.871921998951926,2024-10-10 16h02.27.941815 +0530,
123,0,123,[0.4518229166666667],[-0.4322916666666667],[1],[0],[0],[1.4457305999821983],['target'],123,0,123,0,202.0078989000176,,10,201.97334249998676,202.0078989000176,202.0078989000176,0.07349749997956678,203.0297947000363,203.41973970003892,[0.4518229166666667],[-0.4322916666666667],[1],[0],[0],[1.4457305999821983],['target'],710056,001,2024-10-10_16h02.11.343,script,2024.2.1post4,59.871921998951926,2024-10-10 16h02.27.941815 +0530,
124,0,124,[-0.052083333333333336],[0.12760416666666666],[1],[0],[0],[1.1064923999947496],['target'],124,0,124,0,203.523668800015,,10,203.49235320003936,203.523668800015,203.523668800015,0.07224790001055226,204.53940230002627,204.59960399998818,[-0.052083333333333336],[0.12760416666666666],[1],[0],[0],[1.1064923999947496],['target'],710056,001,2024-10-10_16h02.11.343,script,2024.2.1post4,59.871921998951926,2024-10-10 16h02.27.941815 +0530,
125,0,125,[0.18098958333333334],[-0.3072916666666667],[1],[0],[0],[1.3403262000065297],['target'],125,0,125,0,204.70118470001034,,10,204.66984769998817,204.70118470001034,204.70118470001034,0.06985800003167242,205.7128906000289,206.01098740001908,[0.18098958333333334],[-0.3072916666666667],[1],[0],[0],[1.3403262000065297],['target'],710056,001,2024-10-10_16h02.11.343,script,2024.2.1post4,59.871921998951926,2024-10-10 16h02.27.941815 +0530,
126,0,126,[-0.3776041666666667],[-0.3255208333333333],[1],[0],[0],[0.9552531999652274],['target'],126,0,126,0,206.11424720002105,,10,206.08108780003386,206.11424720002105,206.11424720002105,0.06976370001211762,,207.07496420003008,[-0.3776041666666667],[-0.3255208333333333],[1],[0],[0],[0.9552531999652274],['target'],710056,001,2024-10-10_16h02.11.343,script,2024.2.1post4,59.871921998951926,2024-10-10 16h02.27.941815 +0530,
127,0,127,[0.18489583333333334],[0.3541666666666667],[1],[0],[0],[1.831425999989733],['target'],127,0,127,0,207.17648150003515,,10,207.1444388999953,207.17648150003515,207.17648150003515,0.06910530000459403,208.19717190001393,208.97674090001965,[0.18489583333333334],[0.3541666666666667],[1],[0],[0],[1.831425999989733],['target'],710056,001,2024-10-10_16h02.11.343,script,2024.2.1post4,59.871921998951926,2024-10-10 16h02.27.941815 +0530,
128,0,128,[0.25],[-0.3802083333333333],[1],[0],[0],[1.564474600018002],['target'],128,0,128,0,209.08321740000974,,10,209.05538330000127,209.08321740000974,209.08321740000974,0.07828850002260879,210.09968849999132,210.62118570000166,[0.25],[-0.3802083333333333],[1],[0],[0],[1.564474600018002],['target'],710056,001,2024-10-10_16h02.11.343,script,2024.2.1post4,59.871921998951926,2024-10-10 16h02.27.941815 +0530,
129,0,129,[-0.033854166666666664],[-0.2421875],[1],[0],[0],[1.1703259999630973],['target'],129,0,129,0,210.7276652000146,,10,210.69317380001303,210.7276652000146,210.7276652000146,0.07156680000480264,211.72842910001054,211.8641122999834,[-0.033854166666666664],[-0.2421875],[1],[0],[0],[1.1703259999630973],['target'],710056,001,2024-10-10_16h02.11.343,script,2024.2.1post4,59.871921998951926,2024-10-10 16h02.27.941815 +0530,
130,0,130,[-0.2955729166666667],[0.4752604166666667],[1],[0],[0],[1.9839153999928385],['target'],130,0,130,0,211.91518210002687,,5,211.89631330000702,211.91518210002687,211.91518210002687,0.031905800045933574,212.92811450001318,213.88093200000003,[-0.2955729166666667],[0.4752604166666667],[1],[0],[0],[1.9839153999928385],['target'],710056,001,2024-10-10_16h02.11.343,script,2024.2.1post4,59.871921998951926,2024-10-10 16h02.27.941815 +0530,
131,0,131,[-0.3841145833333333],[-0.3072916666666667],[1],[0],[0],[1.2173246000311337],['target'],131,0,131,0,213.93050010001753,,5,213.91113870003028,213.93050010001753,213.93050010001753,0.029985700035467744,214.94444900000235,215.12907060002908,[-0.3841145833333333],[-0.3072916666666667],[1],[0],[0],[1.2173246000311337],['target'],710056,001,2024-10-10_16h02.11.343,script,2024.2.1post4,59.871921998951926,2024-10-10 16h02.27.941815 +0530,
132,0,132,[0.24088541666666666],[0.045572916666666664],[1],[0],[0],[1.2021229999954812],['target'],132,0,132,0,215.17934199998854,,5,215.16025800001808,215.17934199998854,215.17934199998854,0.030959200055804104,216.19475810002768,216.36297339998418,[0.24088541666666666],[0.045572916666666664],[1],[0],[0],[1.2021229999954812],['target'],710056,001,2024-10-10_16h02.11.343,script,2024.2.1post4,59.871921998951926,2024-10-10 16h02.27.941815 +0530,
133,0,133,[-0.38671875],[0.09635416666666667],[1],[0],[0],[1.0875533999642357],['target'],133,0,133,0,216.42481150000822,,5,216.4080593000399,216.42481150000822,216.42481150000822,0.0448585000121966,217.42769899999257,217.49622040003305,[-0.38671875],[0.09635416666666667],[1],[0],[0],[1.0875533999642357],['target'],710056,001,2024-10-10_16h02.11.343,script,2024.2.1post4,59.871921998951926,2024-10-10 16h02.27.941815 +0530,
134,0,134,[-0.20442708333333334],[-0.08984375],[1],[0],[0],[1.2586015000124462],['target'],134,0,134,0,217.58230700000422,,10,217.55481370002963,217.58230700000422,217.58230700000422,0.05836590001126751,218.59489170002053,218.8140497999848,[-0.20442708333333334],[-0.08984375],[1],[0],[0],[1.2586015000124462],['target'],710056,001,2024-10-10_16h02.11.343,script,2024.2.1post4,59.871921998951926,2024-10-10 16h02.27.941815 +0530,
135,0,135,[0.07942708333333333],[0.17317708333333334],[1],[0],[0],[1.215969499957282],['target'],135,0,135,0,218.86557060002815,,5,218.84676139999647,218.86557060002815,218.86557060002815,0.03241739998338744,219.8774887000327,220.06339369999478,[0.07942708333333333],[0.17317708333333334],[1],[0],[0],[1.215969499957282],['target'],710056,001,2024-10-10_16h02.11.343,script,2024.2.1post4,59.871921998951926,2024-10-10 16h02.27.941815 +0530,
136,0,136,[0.4661458333333333],[0.17447916666666666],[1],[0],[0],[3.487260600028094],['target'],136,0,136,0,220.1116883000359,,5,220.09311780001735,220.1116883000359,220.1116883000359,0.029419899976346642,221.11068240000168,223.58099899999797,[0.4661458333333333],[0.17447916666666666],[1],[0],[0],[3.487260600028094],['target'],710056,001,2024-10-10_16h02.11.343,script,2024.2.1post4,59.871921998951926,2024-10-10 16h02.27.941815 +0530,
137,0,137,[0.10026041666666667],[0.057291666666666664],[1],[0],[0],[1.046484699996654],['target'],137,0,137,0,223.67781530000502,,10,223.6501534000272,223.67781530000502,223.67781530000502,0.0687803000328131,224.6787364000338,224.69739769998705,[0.10026041666666667],[0.057291666666666664],[1],[0],[0],[1.046484699996654],['target'],710056,001,2024-10-10_16h02.11.343,script,2024.2.1post4,59.871921998951926,2024-10-10 16h02.27.941815 +0530,
138,0,138,[-0.13020833333333334],[-0.33203125],[1],[0],[0],[1.1675321999937296],['target'],138,0,138,0,224.74668939999538,,5,224.7285084000323,224.74668939999538,224.74668939999538,0.030781299981754273,225.76113699999405,225.89690290001454,[-0.13020833333333334],[-0.33203125],[1],[0],[0],[1.1675321999937296],['target'],710056,001,2024-10-10_16h02.11.343,script,2024.2.1post4,59.871921998951926,2024-10-10 16h02.27.941815 +0530,
139,0,139,[0.41796875],[0.15885416666666666],[1],[0],[0],[1.9199086999869905],['target'],139,0,139,0,225.94426150002982,,5,225.92650780000258,225.94426150002982,225.94426150002982,0.0293816999765113,226.94394740002463,227.84711670002434,[0.41796875],[0.15885416666666666],[1],[0],[0],[1.9199086999869905],['target'],710056,001,2024-10-10_16h02.11.343,script,2024.2.1post4,59.871921998951926,2024-10-10 16h02.27.941815 +0530,
140,0,140,[0.22265625],[-0.4153645833333333],[1],[0],[0],[1.7032144999830052],['target'],140,0,140,0,227.9102662000223,,5,227.89280880003935,227.9102662000223,227.9102662000223,0.045395699969958514,228.91033779998543,229.59671439998783,[0.22265625],[-0.4153645833333333],[1],[0],[0],[1.7032144999830052],['target'],710056,001,2024-10-10_16h02.11.343,script,2024.2.1post4,59.871921998951926,2024-10-10 16h02.27.941815 +0530,
141,0,141,[0.35546875],[0.203125],[1],[0],[0],[1.207843900017906],['target'],141,0,141,0,229.67997669999022,,10,229.6538239000365,229.67997669999022,229.67997669999022,0.0568968000006862,230.69503390003229,230.8622861999902,[0.35546875],[0.203125],[1],[0],[0],[1.207843900017906],['target'],710056,001,2024-10-10_16h02.11.343,script,2024.2.1post4,59.871921998951926,2024-10-10 16h02.27.941815 +0530,
142,0,142,[-0.08072916666666667],[-0.3880208333333333],[1],[0],[0],[1.2410558999981731],[None],142,0,142,0,230.92263700003969,,5,230.9048935000319,230.92263700003969,230.92263700003969,0.04237490001833066,231.9270744000096,232.14644949999638,[-0.08072916666666667],[-0.3880208333333333],[1],[0],[0],[1.2410558999981731],[None],710056,001,2024-10-10_16h02.11.343,script,2024.2.1post4,59.871921998951926,2024-10-10 16h02.27.941815 +0530,
143,0,143,[-0.4869791666666667],[0.2630208333333333],[1],[0],[0],[1.2121409000246786],['target'],143,0,143,0,232.2437492000172,,10,232.21677920001093,232.2437492000172,232.2437492000172,0.07009449996985495,233.24301790003665,233.42951320001157,[-0.4869791666666667],[0.2630208333333333],[1],[0],[0],[1.2121409000246786],['target'],710056,001,2024-10-10_16h02.11.343,script,2024.2.1post4,59.871921998951926,2024-10-10 16h02.27.941815 +0530,
144,0,144,[0.026041666666666668],[-0.3385416666666667],[1],[0],[0],[1.222748199943453],['target'],144,0,144,0,233.47736419999273,,5,233.45986669999547,233.47736419999273,233.47736419999273,0.030063699989113957,234.47723090002546,234.6832793999929,[0.026041666666666668],[-0.3385416666666667],[1],[0],[0],[1.222748199943453],['target'],710056,001,2024-10-10_16h02.11.343,script,2024.2.1post4,59.871921998951926,2024-10-10 16h02.27.941815 +0530,
145,0,145,[0.4752604166666667],[-0.10286458333333333],[1],[0],[0],[1.4447712000110187],['target'],145,0,145,0,234.73713239998324,,5,234.71691730001476,234.73713239998324,234.73713239998324,0.03334399999585003,235.74384579999605,236.1623804999981,[0.4752604166666667],[-0.10286458333333333],[1],[0],[0],[1.4447712000110187],['target'],710056,001,2024-10-10_16h02.11.343,script,2024.2.1post4,59.871921998951926,2024-10-10 16h02.27.941815 +0530,
146,0,146,[-0.01171875],[-0.2890625],[1],[0],[0],[1.273735900002066],['target'],146,0,146,0,236.24924380000448,,10,236.222655199992,236.24924380000448,236.24924380000448,0.06005829997593537,237.2634724000236,237.49701500002993,[-0.01171875],[-0.2890625],[1],[0],[0],[1.273735900002066],['target'],710056,001,2024-10-10_16h02.11.343,script,2024.2.1post4,59.871921998951926,2024-10-10 16h02.27.941815 +0530,
147,0,147,[-0.00390625],[0.19010416666666666],[1],[0],[0],[1.088114799989853],['target'],147,0,147,0,237.5841210000217,,10,237.5576058999868,237.5841210000217,237.5841210000217,0.06028400000650436,238.59386249998352,238.64638550003292,[-0.00390625],[0.19010416666666666],[1],[0],[0],[1.088114799989853],['target'],710056,001,2024-10-10_16h02.11.343,script,2024.2.1post4,59.871921998951926,2024-10-10 16h02.27.941815 +0530,
148,0,148,[0.30078125],[0.3619791666666667],[1],[0],[0],[1.035107399977278],['target'],148,0,148,0,238.6960783000104,,5,238.67763769999146,238.6960783000104,238.6960783000104,0.030962899967562407,239.7102700000396,239.71337710000807,[0.30078125],[0.3619791666666667],[1],[0],[0],[1.035107399977278],['target'],710056,001,2024-10-10_16h02.11.343,script,2024.2.1post4,59.871921998951926,2024-10-10 16h02.27.941815 +0530,
149,0,149,[-0.014322916666666666],[0.2890625],[1],[0],[0],[1.2349025000003166],['target'],149,0,149,0,239.76102289999835,,5,239.7428144000005,239.76102289999835,239.76102289999835,0.029203500016592443,240.77616180002224,240.97828760003904,[-0.014322916666666666],[0.2890625],[1],[0],[0],[1.2349025000003166],['target'],710056,001,2024-10-10_16h02.11.343,script,2024.2.1post4,59.871921998951926,2024-10-10 16h02.27.941815 +0530,
150,0,150,[0.14322916666666666],[0.046875],[1],[0],[0],[1.3636479999986477],['target'],150,0,150,0,241.0565250000218,,10,241.03137189999688,241.0565250000218,241.0565250000218,0.05287670000689104,242.06495750002796,242.3956329000066,[0.14322916666666666],[0.046875],[1],[0],[0],[1.3636479999986477],['target'],710056,001,2024-10-10_16h02.11.343,script,2024.2.1post4,59.871921998951926,2024-10-10 16h02.27.941815 +0530,
151,0,151,[-0.3580729166666667],[0.2604166666666667],[1],[0],[0],[1.4281093999743462],['target'],151,0,151,0,242.49556300003314,,10,242.46736429998418,242.49556300003314,242.49556300003314,0.07141129998490214,243.4953727000393,243.896050499985,[-0.3580729166666667],[0.2604166666666667],[1],[0],[0],[1.4281093999743462],['target'],710056,001,2024-10-10_16h02.11.343,script,2024.2.1post4,59.871921998951926,2024-10-10 16h02.27.941815 +0530,
152,0,152,[-0.1015625],[-0.11067708333333333],[1],[0],[0],[1.2585076999966986],['target'],152,0,152,0,243.98021180002252,,10,243.95385250000982,243.98021180002252,243.98021180002252,0.057377399993129075,244.99262860004092,245.21297669998603,[-0.1015625],[-0.11067708333333333],[1],[0],[0],[1.2585076999966986],['target'],710056,001,2024-10-10_16h02.11.343,script,2024.2.1post4,59.871921998951926,2024-10-10 16h02.27.941815 +0530,
153,0,153,[-0.2955729166666667],[-0.2786458333333333],[1],[0],[0],[1.108378199976869],['target'],153,0,153,0,245.3144009000389,,10,245.28698229999281,245.3144009000389,245.3144009000389,0.07372679997934029,246.32667400001083,246.39617490000091,[-0.2955729166666667],[-0.2786458333333333],[1],[0],[0],[1.108378199976869],['target'],710056,001,2024-10-10_16h02.11.343,script,2024.2.1post4,59.871921998951926,2024-10-10 16h02.27.941815 +0530,
154,0,154,[-0.15234375],[0.022135416666666668],[1],[0],[0],[1.0371760000125505],['target'],154,0,154,0,246.48671430000104,,10,246.4587399000302,246.48671430000104,246.48671430000104,0.062249100010376424,247.49390900001163,247.49660529999528,[-0.15234375],[0.022135416666666668],[1],[0],[0],[1.0371760000125505],['target'],710056,001,2024-10-10_16h02.11.343,script,2024.2.1post4,59.871921998951926,2024-10-10 16h02.27.941815 +0530,
155,0,155,[-0.4153645833333333],[0.06770833333333333],[1],[0],[0],[1.0056115999468602],[None],155,0,155,0,247.5835254000267,,10,247.55854040000122,247.5835254000267,247.5835254000267,0.061555600026622415,,248.56477019999875,[-0.4153645833333333],[0.06770833333333333],[1],[0],[0],[1.0056115999468602],[None],710056,001,2024-10-10_16h02.11.343,script,2024.2.1post4,59.871921998951926,2024-10-10 16h02.27.941815 +0530,
156,0,156,[0.01171875],[0.10807291666666667],[1],[0],[0],[1.1485337999765761],[None],156,0,156,0,248.6158931000391,,5,248.5970881000394,248.6158931000391,248.6158931000391,0.03188530000625178,249.62651400000323,249.7462380999932,[0.01171875],[0.10807291666666667],[1],[0],[0],[1.1485337999765761],[None],710056,001,2024-10-10_16h02.11.343,script,2024.2.1post4,59.871921998951926,2024-10-10 16h02.27.941815 +0530,
157,0,157,[0.0546875],[-0.38671875],[1],[0],[0],[1.1024832999682985],['target'],157,0,157,0,249.79321670002537,,5,249.77612709999084,249.79321670002537,249.79321670002537,0.029677100013941526,250.79356040002313,250.8792064000154,[0.0546875],[-0.38671875],[1],[0],[0],[1.1024832999682985],['target'],710056,001,2024-10-10_16h02.11.343,script,2024.2.1post4,59.871921998951926,2024-10-10 16h02.27.941815 +0530,
158,0,158,[0.3359375],[-0.10546875],[1],[0],[0],[1.700329699961003],['target'],158,0,158,0,250.93054159998428,,5,250.91151539998828,250.93054159998428,250.93054159998428,0.03209319995949045,251.94369380001444,252.61246319999918,[0.3359375],[-0.10546875],[1],[0],[0],[1.700329699961003],['target'],710056,001,2024-10-10_16h02.11.343,script,2024.2.1post4,59.871921998951926,2024-10-10 16h02.27.941815 +0530,
159,0,159,[-0.0234375],[0.2916666666666667],[1],[0],[0],[2.7410169999930076],['target'],159,0,159,0,252.71355490002315,,10,252.68628570000874,252.71355490002315,252.71355490002315,0.07359029998769984,253.7259144000127,255.42789069999708,[-0.0234375],[0.2916666666666667],[1],[0],[0],[2.7410169999930076],['target'],710056,001,2024-10-10_16h02.11.343,script,2024.2.1post4,59.871921998951926,2024-10-10 16h02.27.941815 +0530,
160,0,160,[0.4830729166666667],[-0.1796875],[1],[0],[0],[1.5221159999491647],['target'],160,0,160,0,255.47284110001056,,5,255.45621790003497,255.47284110001056,255.47284110001056,0.02804939995985478,256.4758846000186,256.9789316999959,[0.4830729166666667],[-0.1796875],[1],[0],[0],[1.5221159999491647],['target'],710056,001,2024-10-10_16h02.11.343,script,2024.2.1post4,59.871921998951926,2024-10-10 16h02.27.941815 +0530,
161,0,161,[0.24348958333333334],[-0.02734375],[1],[0],[0],[2.1967870999942534],['target'],161,0,161,0,257.0782433000277,,10,257.04929240001366,257.0782433000277,257.0782433000277,0.07012950000353158,258.092754399986,259.2467128999997,[0.24348958333333334],[-0.02734375],[1],[0],[0],[2.1967870999942534],['target'],710056,001,2024-10-10_16h02.11.343,script,2024.2.1post4,59.871921998951926,2024-10-10 16h02.27.941815 +0530,
162,0,162,[0.4140625],[-0.4609375],[1],[0],[0],[1.3916269000037573],['target'],162,0,162,0,259.34623670001747,,10,259.3186612999998,259.34623670001747,259.34623670001747,0.07161990000167862,260.3607814999996,260.71085670002503,[0.4140625],[-0.4609375],[1],[0],[0],[1.3916269000037573],['target'],710056,001,2024-10-10_16h02.11.343,script,2024.2.1post4,59.871921998951926,2024-10-10 16h02.27.941815 +0530,
163,0,163,[0.44921875],[-0.3151041666666667],[1],[0],[0],[1.0587857000064105],['target'],163,0,163,0,260.7696648000274,,5,260.7525525999954,260.7696648000274,260.7696648000274,0.041405700030736625,261.77540650003357,261.8119352000067,[0.44921875],[-0.3151041666666667],[1],[0],[0],[1.0587857000064105],['target'],710056,001,2024-10-10_16h02.11.343,script,2024.2.1post4,59.871921998951926,2024-10-10 16h02.27.941815 +0530,
164,0,164,[0.4440104166666667],[0.4635416666666667],[1],[0],[0],[1.7513184999697842],['target'],164,0,164,0,261.8591206999845,,5,261.84225680003874,261.8591206999845,261.8591206999845,0.03010909998556599,262.85951069998555,263.5941896000295,[0.4440104166666667],[0.4635416666666667],[1],[0],[0],[1.7513184999697842],['target'],710056,001,2024-10-10_16h02.11.343,script,2024.2.1post4,59.871921998951926,2024-10-10 16h02.27.941815 +0530,
165,0,165,[-0.3216145833333333],[-0.11328125],[1],[0],[0],[1.3745798000018112],['target'],165,0,165,0,263.6791883999831,,10,263.6532798000262,263.6791883999831,263.6791883999831,0.05886679998366162,264.6788506000303,265.0285801999853,[-0.3216145833333333],[-0.11328125],[1],[0],[0],[1.3745798000018112],['target'],710056,001,2024-10-10_16h02.11.343,script,2024.2.1post4,59.871921998951926,2024-10-10 16h02.27.941815 +0530,
166,0,166,[-0.39453125],[0.3020833333333333],[1],[0],[0],[1.378986299969256],['target'],166,0,166,0,265.1261557000107,,10,265.098363600031,265.1261557000107,265.1261557000107,0.06945880001876503,266.1292767000268,266.47792510001455,[-0.39453125],[0.3020833333333333],[1],[0],[0],[1.378986299969256],['target'],710056,001,2024-10-10_16h02.11.343,script,2024.2.1post4,59.871921998951926,2024-10-10 16h02.27.941815 +0530,
167,0,167,[0.24869791666666666],[-0.17447916666666666],[1],[0],[0],[1.9339409999665804],['target'],167,0,167,0,266.56020780000836,,10,266.5336538000265,266.56020780000836,266.56020780000836,0.05544289998942986,267.57521370000904,268.4692181000137,[0.24869791666666666],[-0.17447916666666666],[1],[0],[0],[1.9339409999665804],['target'],710056,001,2024-10-10_16h02.11.343,script,2024.2.1post4,59.871921998951926,2024-10-10 16h02.27.941815 +0530,
168,0,168,[-0.328125],[-0.08463541666666667],[1],[0],[0],[1.157186999975238],[None],168,0,168,0,268.5755625999882,,10,268.5421465000254,268.5755625999882,268.5755625999882,0.0725273999851197,269.5881124000298,269.7003097999841,[-0.328125],[-0.08463541666666667],[1],[0],[0],[1.157186999975238],[None],710056,001,2024-10-10_16h02.11.343,script,2024.2.1post4,59.871921998951926,2024-10-10 16h02.27.941815 +0530,
169,0,169,[-0.30078125],[-0.09505208333333333],[1],[0],[0],[0.8435170000302605],['target'],169,0,169,0,269.79819050000515,,10,269.7676707000355,269.79819050000515,269.79819050000515,0.06680580001557246,,270.61198340001283,[-0.30078125],[-0.09505208333333333],[1],[0],[0],[0.8435170000302605],['target'],710056,001,2024-10-10_16h02.11.343,script,2024.2.1post4,59.871921998951926,2024-10-10 16h02.27.941815 +0530,
170,0,170,[0.16536458333333334],[0.2708333333333333],[1],[0],[0],[1.4729954000213183],['target'],170,0,170,0,270.67133590002777,,5,270.6560456000152,270.67133590002777,270.67133590002777,0.0436982000246644,271.675272100023,272.1297212000354,[0.16536458333333334],[0.2708333333333333],[1],[0],[0],[1.4729954000213183],['target'],710056,001,2024-10-10_16h02.11.343,script,2024.2.1post4,59.871921998951926,2024-10-10 16h02.27.941815 +0530,
171,0,171,[0.19401041666666666],[-0.4674479166666667],[1],[0],[0],[1.641854699992109],['target'],171,0,171,0,272.23815360001754,,10,272.2020428000251,272.23815360001754,272.23815360001754,0.0720450000371784,273.2411824000301,273.8445228000055,[0.19401041666666666],[-0.4674479166666667],[1],[0],[0],[1.641854699992109],['target'],710056,001,2024-10-10_16h02.11.343,script,2024.2.1post4,59.871921998951926,2024-10-10 16h02.27.941815 +0530,
172,0,172,[-0.234375],[0.453125],[1],[0],[0],[2.0111757999984547],['target'],172,0,172,0,273.9445712000015,,10,273.91594770003576,273.9445712000015,273.9445712000015,0.07113410002784804,274.9453246000339,275.9278852000134,[-0.234375],[0.453125],[1],[0],[0],[2.0111757999984547],['target'],710056,001,2024-10-10_16h02.11.343,script,2024.2.1post4,59.871921998951926,2024-10-10 16h02.27.941815 +0530,
173,0,173,[0.08072916666666667],[0.109375],[1],[0],[0],[1.0353467999957502],['target'],173,0,173,0,275.9880212999997,,5,275.9579066000297,275.9880212999997,275.9880212999997,0.02972679998492822,276.9913200000301,276.9938656000304,[0.08072916666666667],[0.109375],[1],[0],[0],[1.0353467999957502],['target'],710056,001,2024-10-10_16h02.11.343,script,2024.2.1post4,59.871921998951926,2024-10-10 16h02.27.941815 +0530,
174,0,174,[0.08854166666666667],[-0.23828125],[1],[0],[0],[0.9768275999813341],['target'],174,0,174,0,277.07714920002036,,10,277.0522554999916,277.07714920002036,277.07714920002036,0.058129900018684566,,278.0297336000367,[0.08854166666666667],[-0.23828125],[1],[0],[0],[0.9768275999813341],['target'],710056,001,2024-10-10_16h02.11.343,script,2024.2.1post4,59.871921998951926,2024-10-10 16h02.27.941815 +0530,
175,0,175,[-0.4479166666666667],[0.48046875],[1],[0],[0],[2.0200256999814883],['target'],175,0,175,0,278.13462600001367,,10,278.10722150001675,278.13462600001367,278.13462600001367,0.0771868999581784,279.14858770003775,280.12784329999704,[-0.4479166666666667],[0.48046875],[1],[0],[0],[2.0200256999814883],['target'],710056,001,2024-10-10_16h02.11.343,script,2024.2.1post4,59.871921998951926,2024-10-10 16h02.27.941815 +0530,
176,0,176,[-0.3736979166666667],[0.045572916666666664],[1],[0],[0],[1.0900457999669015],['target'],176,0,176,0,280.18598479998764,,5,280.1692350000376,280.18598479998764,280.18598479998764,0.04095599998254329,281.1917575999978,281.2598401000141,[-0.3736979166666667],[0.045572916666666664],[1],[0],[0],[1.0900457999669015],['target'],710056,001,2024-10-10_16h02.11.343,script,2024.2.1post4,59.871921998951926,2024-10-10 16h02.27.941815 +0530,
177,0,177,[-0.4895833333333333],[0.3359375],[1],[0],[0],[1.35746220004512],['target'],177,0,177,0,281.346345100028,,10,281.3183482000022,281.346345100028,281.346345100028,0.058291600027587265,282.35923180001555,282.6764423000277,[-0.4895833333333333],[0.3359375],[1],[0],[0],[1.35746220004512],['target'],710056,001,2024-10-10_16h02.11.343,script,2024.2.1post4,59.871921998951926,2024-10-10 16h02.27.941815 +0530,
178,0,178,[0.31640625],[0.27734375],[1],[0],[0],[1.2290549000026658],['target'],178,0,178,0,282.77668569999514,,10,282.74776350002503,282.77668569999514,282.77668569999514,0.07102229999145493,283.7768301999895,283.97741640004097,[0.31640625],[0.27734375],[1],[0],[0],[1.2290549000026658],['target'],710056,001,2024-10-10_16h02.11.343,script,2024.2.1post4,59.871921998951926,2024-10-10 16h02.27.941815 +0530,
179,0,179,[-0.21223958333333334],[0.2708333333333333],[1],[0],[0],[1.1551676000235602],['target'],179,0,179,0,284.06901929999003,,10,284.04116890003206,284.06901929999003,284.06901929999003,0.06347020005341619,285.0755600000266,285.1969655000139,[-0.21223958333333334],[0.2708333333333333],[1],[0],[0],[1.1551676000235602],['target'],710056,001,2024-10-10_16h02.11.343,script,2024.2.1post4,59.871921998951926,2024-10-10 16h02.27.941815 +0530,
180,0,180,[-0.4661458333333333],[0.4674479166666667],[1],[0],[0],[3.4030455999891274],['target'],180,0,180,0,285.2848610000219,,10,285.257235600031,285.2848610000219,285.2848610000219,0.059944899985566735,286.29248040000675,288.6609762000153,[-0.4661458333333333],[0.4674479166666667],[1],[0],[0],[3.4030455999891274],['target'],710056,001,2024-10-10_16h02.11.343,script,2024.2.1post4,59.871921998951926,2024-10-10 16h02.27.941815 +0530,
181,0,181,[0.3606770833333333],[-0.4388020833333333],[1],[0],[0],[1.885136800003238],['target'],181,0,181,0,288.7610698000062,,10,288.7262590000173,288.7610698000062,288.7610698000062,0.06495199998607859,289.77417970000533,290.6120782000362,[0.3606770833333333],[-0.4388020833333333],[1],[0],[0],[1.885136800003238],['target'],710056,001,2024-10-10_16h02.11.343,script,2024.2.1post4,59.871921998951926,2024-10-10 16h02.27.941815 +0530,
182,0,182,[0.19140625],[0.3658854166666667],[1],[0],[0],[1.2612472000182606],['target'],182,0,182,0,290.71269389998633,,10,290.6821379000321,290.71269389998633,290.71269389998633,0.06963470001937822,291.7239284000243,291.9439665999962,[0.19140625],[0.3658854166666667],[1],[0],[0],[1.2612472000182606],['target'],710056,001,2024-10-10_16h02.11.343,script,2024.2.1post4,59.871921998951926,2024-10-10 16h02.27.941815 +0530,
183,0,183,[-0.08984375],[0.4348958333333333],[1],[0],[0],[1.338504399987869],['target'],183,0,183,0,292.02981879998697,,10,292.00352760002716,292.02981879998697,292.02981879998697,0.059230800019577146,293.0413196000154,293.3426407999941,[-0.08984375],[0.4348958333333333],[1],[0],[0],[1.338504399987869],['target'],710056,001,2024-10-10_16h02.11.343,script,2024.2.1post4,59.871921998951926,2024-10-10 16h02.27.941815 +0530,
184,0,184,[0.47265625],[-0.3151041666666667],[1],[0],[0],[1.3546421999926679],['target'],184,0,184,0,293.38702010002453,,5,293.3715323000215,293.38702010002453,293.38702010002453,0.02860690001398325,294.3908799000201,294.72676130000036,[0.47265625],[-0.3151041666666667],[1],[0],[0],[1.3546421999926679],['target'],710056,001,2024-10-10_16h02.11.343,script,2024.2.1post4,59.871921998951926,2024-10-10 16h02.27.941815 +0530,
185,0,185,[-0.4296875],[-0.4557291666666667],[1],[0],[0],[1.3014356999774463],['target'],185,0,185,0,294.7735745999962,,5,294.7570599000319,294.7735745999962,294.7735745999962,0.03008250001585111,295.77556259999983,296.0591061000014,[-0.4296875],[-0.4557291666666667],[1],[0],[0],[1.3014356999774463],['target'],710056,001,2024-10-10_16h02.11.343,script,2024.2.1post4,59.871921998951926,2024-10-10 16h02.27.941815 +0530,
186,0,186,[-0.27734375],[-0.15625],[1],[0],[0],[1.0700537000084296],['target'],186,0,186,0,296.1071932000341,,5,296.0890529000317,296.1071932000341,296.1071932000341,0.02970899996580556,297.1074265000061,297.15972639998654,[-0.27734375],[-0.15625],[1],[0],[0],[1.0700537000084296],['target'],710056,001,2024-10-10_16h02.11.343,script,2024.2.1post4,59.871921998951926,2024-10-10 16h02.27.941815 +0530,
187,0,187,[-0.35546875],[0.171875],[1],[0],[0],[1.153778100037016],['target'],187,0,187,0,297.2058052000357,,5,297.18897509999806,297.2058052000357,297.2058052000357,0.02903069998137653,298.20801320002647,298.34337369998684,[-0.35546875],[0.171875],[1],[0],[0],[1.153778100037016],['target'],710056,001,2024-10-10_16h02.11.343,script,2024.2.1post4,59.871921998951926,2024-10-10 16h02.27.941815 +0530,
188,0,188,[0.10807291666666667],[0.0078125],[1],[0],[0],[0.9241893999860622],['target'],188,0,188,0,298.4010958999861,,5,298.3846971000312,298.4010958999861,298.4010958999861,0.04110770003171638,,299.30948860000353,[0.10807291666666667],[0.0078125],[1],[0],[0],[0.9241893999860622],['target'],710056,001,2024-10-10_16h02.11.343,script,2024.2.1post4,59.871921998951926,2024-10-10 16h02.27.941815 +0530,
189,0,189,[0.16015625],[0.125],[1],[0],[0],[1.1621601000078954],['target'],189,0,189,0,299.40500880003674,,10,299.3791932000313,299.40500880003674,299.40500880003674,0.06948850001208484,300.4069172000163,300.54195029998664,[0.16015625],[0.125],[1],[0],[0],[1.1621601000078954],['target'],710056,001,2024-10-10_16h02.11.343,script,2024.2.1post4,59.871921998951926,2024-10-10 16h02.27.941815 +0530,
190,0,190,[-0.19921875],[0.3033854166666667],[1],[0],[0],[1.2947566999937408],['target'],190,0,190,0,300.5976381000364,,5,300.58133850002196,300.5976381000364,300.5976381000364,0.03910220001125708,301.6067769000074,301.8766858000308,[-0.19921875],[0.3033854166666667],[1],[0],[0],[1.2947566999937408],['target'],710056,001,2024-10-10_16h02.11.343,script,2024.2.1post4,59.871921998951926,2024-10-10 16h02.27.941815 +0530,
191,0,191,[0.02734375],[-0.4622395833333333],[1],[0],[0],[1.8128284999984317],['target'],191,0,191,0,301.9569288000348,,10,301.93002740002703,301.9569288000348,301.9569288000348,0.053124200028833,302.97319220000645,303.74348619999364,[0.02734375],[-0.4622395833333333],[1],[0],[0],[1.8128284999984317],['target'],710056,001,2024-10-10_16h02.11.343,script,2024.2.1post4,59.871921998951926,2024-10-10 16h02.27.941815 +0530,
192,0,192,[0.12890625],[-0.059895833333333336],[1],[0],[0],[1.3960008000140078],['target'],192,0,192,0,303.8406898000394,,10,303.8138983999961,303.8406898000394,303.8406898000394,0.07008999999379739,304.8416096000001,305.2106233999948,[0.12890625],[-0.059895833333333336],[1],[0],[0],[1.3960008000140078],['target'],710056,001,2024-10-10_16h02.11.343,script,2024.2.1post4,59.871921998951926,2024-10-10 16h02.27.941815 +0530,
193,0,193,[-0.20963541666666666],[-0.20182291666666666],[1],[0],[0],[1.0215971000143327],['target'],193,0,193,0,305.2591217000154,,5,305.2419137000106,305.2591217000154,305.2591217000154,0.03096720000030473,306.2607517000288,306.2642043000087,[-0.20963541666666666],[-0.20182291666666666],[1],[0],[0],[1.0215971000143327],['target'],710056,001,2024-10-10_16h02.11.343,script,2024.2.1post4,59.871921998951926,2024-10-10 16h02.27.941815 +0530,
194,0,194,[-0.38671875],[0.3723958333333333],[1],[0],[0],[1.8970863000140525],['target'],194,0,194,0,306.38977730000624,,10,306.32741550001083,306.38977730000624,306.38977730000624,0.06290329998591915,307.389925400028,308.22511510003824,[-0.38671875],[0.3723958333333333],[1],[0],[0],[1.8970863000140525],['target'],710056,001,2024-10-10_16h02.11.343,script,2024.2.1post4,59.871921998951926,2024-10-10 16h02.27.941815 +0530,
195,0,195,[0.044270833333333336],[0.2994791666666667],[1],[0],[0],[1.106169500038959],['target'],195,0,195,0,308.2876613000408,,5,308.2702681000228,308.2876613000408,308.2876613000408,0.044860899972263724,309.29026849998627,309.37705469998764,[0.044270833333333336],[0.2994791666666667],[1],[0],[0],[1.106169500038959],['target'],710056,001,2024-10-10_16h02.11.343,script,2024.2.1post4,59.871921998951926,2024-10-10 16h02.27.941815 +0530,
196,0,196,[0.2526041666666667],[-0.29296875],[1],[0],[0],[1.5544962999993004],['target'],196,0,196,0,309.4651171999867,,10,309.43771979998564,309.4651171999867,309.4651171999867,0.060423599963542074,310.4728289000341,310.99281530000735,[0.2526041666666667],[-0.29296875],[1],[0],[0],[1.5544962999993004],['target'],710056,001,2024-10-10_16h02.11.343,script,2024.2.1post4,59.871921998951926,2024-10-10 16h02.27.941815 +0530,
197,0,197,[0.036458333333333336],[-0.4127604166666667],[1],[0],[0],[1.0541989000048488],['target'],197,0,197,0,311.0403183000162,,5,311.02168629999505,311.0403183000162,311.0403183000162,0.028595199983101338,312.0402961000218,312.0765351000009,[0.036458333333333336],[-0.4127604166666667],[1],[0],[0],[1.0541989000048488],['target'],710056,001,2024-10-10_16h02.11.343,script,2024.2.1post4,59.871921998951926,2024-10-10 16h02.27.941815 +0530,
198,0,198,[0.3671875],[-0.022135416666666668],[1],[0],[0],[1.5013255000230856],['target'],198,0,198,0,312.12559910002165,,5,312.1067658000393,312.12559910002165,312.12559910002165,0.030007499968633056,313.1397828999907,313.6086971000186,[0.3671875],[-0.022135416666666668],[1],[0],[0],[1.5013255000230856],['target'],710056,001,2024-10-10_16h02.11.343,script,2024.2.1post4,59.871921998951926,2024-10-10 16h02.27.941815 +0530,
199,0,199,[-0.19661458333333334],[0.15494791666666666],[1],[0],[0],[1.2267694000038318],['target'],199,0,199,0,313.71072129998356,,10,313.68343680002727,313.71072129998356,313.71072129998356,0.07456910004839301,314.7194768000045,314.9092978000408,[-0.19661458333333334],[0.15494791666666666],[1],[0],[0],[1.2267694000038318],['target'],710056,001,2024-10-10_16h02.11.343,script,2024.2.1post4,59.871921998951926,2024-10-10 16h02.27.941815 +0530,
