study_word,thisN,thisTrialN,thisRepN,slider.response,slider.rt,test,reference,old_new,textbox.text,mouse.x,mouse.y,mouse.leftButton,mouse.midButton,mouse.rightButton,mouse.time,mouse.clicked_name,trials.thisRepN,trials.thisTrialN,trials.thisN,trials.thisIndex,trials_2.thisRepN,trials_2.thisTrialN,trials_2.thisN,trials_2.thisIndex,thisRow.t,notes,trial.started,text.started,slider.started,trial.stopped,trials.slider.response,trials.slider.rt,T.started,text_2.started,textbox.started,text_3.started,mouse.started,T.stopped,trials_2.textbox.text,trials_2.mouse.x,trials_2.mouse.y,trials_2.mouse.leftButton,trials_2.mouse.midButton,trials_2.mouse.rightButton,trials_2.mouse.time,trials_2.mouse.clicked_name,participant,session,date,expName,psychopyVersion,frameRate,expStart
marble,0,0,0,1.171875,4.5929353,,,,,,,,,,,,0,0,0,3,,,,,0.1164022,,0.0413293,0.1164022,0.1164022,4.6988058,1.171875,4.5929353,,,,,,,,,,,,,,,796158,1,2024-10-27_21h04.12.049,word priming,2024.2.1post4,59.88834419,2024-10-27 21h04.25.209535 +0530
book,1,1,0,3.109375,0.5949221,,,,,,,,,,,,0,1,1,0,,,,,4.7217977,,4.704632,4.7217977,4.7217977,5.3194086,3.109375,0.5949221,,,,,,,,,,,,,,,796158,1,2024-10-27_21h04.12.049,word priming,2024.2.1post4,59.88834419,2024-10-27 21h04.25.209535 +0530
poster,2,2,0,1,0.6868897,,,,,,,,,,,,0,2,2,14,,,,,5.3484248,,5.3295845,5.3484248,5.3484248,6.0384363,1,0.6868897,,,,,,,,,,,,,,,796158,1,2024-10-27_21h04.12.049,word priming,2024.2.1post4,59.88834419,2024-10-27 21h04.25.209535 +0530
cushion,3,3,0,1,0.307328,,,,,,,,,,,,0,3,3,1,,,,,6.0677224,,6.0483106,6.0677224,6.0677224,6.371449,1,0.307328,,,,,,,,,,,,,,,796158,1,2024-10-27_21h04.12.049,word priming,2024.2.1post4,59.88834419,2024-10-27 21h04.25.209535 +0530
board,4,4,0,1,0.8323363,,,,,,,,,,,,0,4,4,4,,,,,6.3945478,,6.3787823,6.3945478,6.3945478,7.2273127,1,0.8323363,,,,,,,,,,,,,,,796158,1,2024-10-27_21h04.12.049,word priming,2024.2.1post4,59.88834419,2024-10-27 21h04.25.209535 +0530
case,5,5,0,3.364583333,1.0984909,,,,,,,,,,,,0,5,5,10,,,,,7.2469096,,7.2318686,7.2469096,7.2469096,8.3467911,3.364583333,1.0984909,,,,,,,,,,,,,,,796158,1,2024-10-27_21h04.12.049,word priming,2024.2.1post4,59.88834419,2024-10-27 21h04.25.209535 +0530
laptop,6,6,0,1.463541667,0.5653831,,,,,,,,,,,,0,6,6,5,,,,,8.3673067,,8.3520802,8.3673067,8.3673067,8.9339119,1.463541667,0.5653831,,,,,,,,,,,,,,,796158,1,2024-10-27_21h04.12.049,word priming,2024.2.1post4,59.88834419,2024-10-27 21h04.25.209535 +0530
T-shirt,7,7,0,1.375,0.5780302,,,,,,,,,,,,0,7,7,7,,,,,8.9728934,,8.9575574,8.9728934,8.9728934,9.551775,1.375,0.5780302,,,,,,,,,,,,,,,796158,1,2024-10-27_21h04.12.049,word priming,2024.2.1post4,59.88834419,2024-10-27 21h04.25.209535 +0530
pastry,8,8,0,1.145833333,0.7060896,,,,,,,,,,,,0,8,8,9,,,,,9.5756582,,9.5600246,9.5756582,9.5756582,10.2819928,1.145833333,0.7060896,,,,,,,,,,,,,,,796158,1,2024-10-27_21h04.12.049,word priming,2024.2.1post4,59.88834419,2024-10-27 21h04.25.209535 +0530
mouse,9,9,0,1.734375,0.5679837,,,,,,,,,,,,0,9,9,8,,,,,10.3025238,,10.2876558,10.3025238,10.3025238,10.8710349,1.734375,0.5679837,,,,,,,,,,,,,,,796158,1,2024-10-27_21h04.12.049,word priming,2024.2.1post4,59.88834419,2024-10-27 21h04.25.209535 +0530
police,10,10,0,1.729166667,0.3144686,,,,,,,,,,,,0,10,10,12,,,,,10.8921566,,10.8763056,10.8921566,10.8921566,11.2068817,1.729166667,0.3144686,,,,,,,,,,,,,,,796158,1,2024-10-27_21h04.12.049,word priming,2024.2.1post4,59.88834419,2024-10-27 21h04.25.209535 +0530
cruise,11,11,0,1.729166667,0.2055864,,,,,,,,,,,,0,11,11,11,,,,,11.2284736,,11.2122786,11.2284736,11.2284736,11.4353177,1.729166667,0.2055864,,,,,,,,,,,,,,,796158,1,2024-10-27_21h04.12.049,word priming,2024.2.1post4,59.88834419,2024-10-27 21h04.25.209535 +0530
chart,12,12,0,1.729166667,0.4219975,,,,,,,,,,,,0,12,12,6,,,,,11.4555074,,11.4404823,11.4555074,11.4555074,11.8791521,1.729166667,0.4219975,,,,,,,,,,,,,,,796158,1,2024-10-27_21h04.12.049,word priming,2024.2.1post4,59.88834419,2024-10-27 21h04.25.209535 +0530
phone,13,13,0,1.729166667,0.4627471,,,,,,,,,,,,0,13,13,2,,,,,11.9000267,,11.884653,11.9000267,11.9000267,12.3635205,1.729166667,0.4627471,,,,,,,,,,,,,,,796158,1,2024-10-27_21h04.12.049,word priming,2024.2.1post4,59.88834419,2024-10-27 21h04.25.209535 +0530
keys,14,14,0,1.729166667,0.6894842,,,,,,,,,,,,0,14,14,13,,,,,12.3833796,,12.3678256,12.3833796,12.3833796,13.0726809,1.729166667,0.6894842,,,,,,,,,,,,,,,796158,1,2024-10-27_21h04.12.049,word priming,2024.2.1post4,59.88834419,2024-10-27 21h04.25.209535 +0530
,0,0,0,,,_o_ic_,police,old,polisce,"[0.125, 0.1328125]","[-0.23567708333333334, -0.3268229166666667]","[1, 1]","[0, 0]","[0, 0]","[9.249684800161049, 9.865480500040576]","[None, 'text_3']",,,,,0,0,0,12,13.1339585,,,,,,,,13.1063231,13.1339585,13.1339585,13.1339585,0.033663,22.9728736,polisce,"[0.125, 0.1328125]","[-0.23567708333333334, -0.3268229166666667]","[1, 1]","[0, 0]","[0, 0]","[9.249684800161049, 9.865480500040576]","[None, 'text_3']",796158,1,2024-10-27_21h04.12.049,word priming,2024.2.1post4,59.88834419,2024-10-27 21h04.25.209535 +0530
,1,1,0,,,c_sh_o_,cushion,old,cushion,[0.07552083333333333],[-0.2955729166666667],[1],[0],[0],[3.4780588999856263],['text_3'],,,,,0,1,1,1,22.9930649,,,,,,,,22.9776083,22.9930649,22.9930649,22.9930649,0.0044241,26.4565796,cushion,[0.07552083333333333],[-0.2955729166666667],[1],[0],[0],[3.4780588999856263],['text_3'],796158,1,2024-10-27_21h04.12.049,word priming,2024.2.1post4,59.88834419,2024-10-27 21h04.25.209535 +0530
,2,2,0,,,t-_hir_,t-shirt,old,t-shirt,[0.07552083333333333],[-0.2955729166666667],[1],[0],[0],[2.5774454998318106],['text_3'],,,,,0,2,2,7,26.4781134,,,,,,,,26.4612693,26.4781134,26.4781134,26.4781134,0.0045444,29.0397301,t-shirt,[0.07552083333333333],[-0.2955729166666667],[1],[0],[0],[2.5774454998318106],['text_3'],796158,1,2024-10-27_21h04.12.049,word priming,2024.2.1post4,59.88834419,2024-10-27 21h04.25.209535 +0530
,3,3,0,,,cr_i_e,cruise,old,cruise,[0.07552083333333333],[-0.2955729166666667],[1],[0],[0],[2.2609876999631524],['text_3'],,,,,0,3,3,11,29.0611452,,,,,,,,29.0439954,29.0611452,29.0611452,29.0611452,0.0041166,31.3060582,cruise,[0.07552083333333333],[-0.2955729166666667],[1],[0],[0],[2.2609876999631524],['text_3'],796158,1,2024-10-27_21h04.12.049,word priming,2024.2.1post4,59.88834419,2024-10-27 21h04.25.209535 +0530
,4,4,0,,,_as_r_,pastry,old,pastry,[0.07552083333333333],[-0.2955729166666667],[1],[0],[0],[2.2609515998046845],['text_3'],,,,,0,4,4,9,31.3278785,,,,,,,,31.310539,31.3278785,31.3278785,31.3278785,0.0043362,33.5727625,pastry,[0.07552083333333333],[-0.2955729166666667],[1],[0],[0],[2.2609515998046845],['text_3'],796158,1,2024-10-27_21h04.12.049,word priming,2024.2.1post4,59.88834419,2024-10-27 21h04.25.209535 +0530
,5,5,0,,,m_u_e,mouse,old,muuse,[0.07552083333333333],[-0.2955729166666667],[1],[0],[0],[4.4273708001710474],['text_3'],,,,,0,5,5,8,33.5939162,,,,,,,,33.5772909,33.5939162,33.5939162,33.5939162,0.0043851,38.0057101,muuse,[0.07552083333333333],[-0.2955729166666667],[1],[0],[0],[4.4273708001710474],['text_3'],796158,1,2024-10-27_21h04.12.049,word priming,2024.2.1post4,59.88834419,2024-10-27 21h04.25.209535 +0530
,6,6,0,,,c_m_ra,camera,new,camera,[0.07552083333333333],[-0.2955729166666667],[1],[0],[0],[2.4445481000002474],['text_3'],,,,,0,6,6,19,38.0267597,,,,,,,,38.010125,38.0267597,38.0267597,38.0267597,0.0042352,40.4556862,camera,[0.07552083333333333],[-0.2955729166666667],[1],[0],[0],[2.4445481000002474],['text_3'],796158,1,2024-10-27_21h04.12.049,word priming,2024.2.1post4,59.88834419,2024-10-27 21h04.25.209535 +0530
,7,7,0,,,v_s_,vase,new,case,[0.07552083333333333],[-0.2955729166666667],[1],[0],[0],[1.4421045000199229],['text_3'],,,,,0,7,7,17,40.4793494,,,,,,,,40.4627636,40.4793494,40.4793494,40.4793494,0.0069402,41.9059444,case,[0.07552083333333333],[-0.2955729166666667],[1],[0],[0],[1.4421045000199229],['text_3'],796158,1,2024-10-27_21h04.12.049,word priming,2024.2.1post4,59.88834419,2024-10-27 21h04.25.209535 +0530
,8,8,0,,,po_s_r,poster,old,po,[],[],[],[],[],[],[],,,,,0,8,8,14,41.9263022,,,,,,,,41.9103798,41.9263022,41.9263022,41.9263022,0.0043056,51.9198342,po,[],[],[],[],[],[],[],796158,1,2024-10-27_21h04.12.049,word priming,2024.2.1post4,59.88834419,2024-10-27 21h04.25.209535 +0530
,9,9,0,,,b_ar_,board,old,board,[0.0546875],[-0.2994791666666667],[1],[0],[0],[9.762963199988008],['text_3'],,,,,0,9,9,4,51.9397994,,,,,,,,51.9246775,51.9397994,51.9397994,51.9397994,0.018596,61.6887229,board,[0.0546875],[-0.2994791666666667],[1],[0],[0],[9.762963199988008],['text_3'],796158,1,2024-10-27_21h04.12.049,word priming,2024.2.1post4,59.88834419,2024-10-27 21h04.25.209535 +0530
,10,10,0,,,_ar__e,marble,old,marble,"[0.028645833333333332, 0.022135416666666668]","[0.2591145833333333, -0.29296875]","[1, 1]","[0, 0]","[0, 0]","[3.3439187000039965, 4.426415099995211]","[None, 'text_3']",,,,,0,10,10,3,61.7094687,,,,,,,,61.6936106,61.7094687,61.7094687,61.7094687,0.0047427,66.1210812,marble,"[0.028645833333333332, 0.022135416666666668]","[0.2591145833333333, -0.29296875]","[1, 1]","[0, 0]","[0, 0]","[3.3439187000039965, 4.426415099995211]","[None, 'text_3']",796158,1,2024-10-27_21h04.12.049,word priming,2024.2.1post4,59.88834419,2024-10-27 21h04.25.209535 +0530
,11,11,0,,,p_nc_l,pencil,new,pencil,[0.022135416666666668],[-0.29296875],[1],[0],[0],[2.277816600166261],['text_3'],,,,,0,11,11,16,66.1428271,,,,,,,,66.1258686,66.1428271,66.1428271,66.1428271,0.0046115,68.4047734,pencil,[0.022135416666666668],[-0.29296875],[1],[0],[0],[2.277816600166261],['text_3'],796158,1,2024-10-27_21h04.12.049,word priming,2024.2.1post4,59.88834419,2024-10-27 21h04.25.209535 +0530
,12,12,0,,,bo_t_e,bottle,new,bottle,[0.022135416666666668],[-0.29296875],[1],[0],[0],[1.9444500000681728],['text_3'],,,,,0,12,12,18,68.4263211,,,,,,,,68.4092507,68.4263211,68.4263211,68.4263211,0.0043078,70.3550177,bottle,[0.022135416666666668],[-0.29296875],[1],[0],[0],[1.9444500000681728],['text_3'],796158,1,2024-10-27_21h04.12.049,word priming,2024.2.1post4,59.88834419,2024-10-27 21h04.25.209535 +0530
,13,13,0,,,p_on_,phone,old,phone,[0.022135416666666668],[-0.29296875],[1],[0],[0],[1.926885100081563],['text_3'],,,,,0,13,13,2,70.3770984,,,,,,,,70.3595185,70.3770984,70.3770984,70.3770984,0.0043455,72.2879668,phone,[0.022135416666666668],[-0.29296875],[1],[0],[0],[1.926885100081563],['text_3'],796158,1,2024-10-27_21h04.12.049,word priming,2024.2.1post4,59.88834419,2024-10-27 21h04.25.209535 +0530
,14,14,0,,,k_ys,keys,old,keys,[0.022135416666666668],[-0.29296875],[1],[0],[0],[1.7109197000972927],['text_3'],,,,,0,14,14,13,72.3097063,,,,,,,,72.2921728,72.3097063,72.3097063,72.3097063,0.0040294,74.0043673,keys,[0.022135416666666668],[-0.29296875],[1],[0],[0],[1.7109197000972927],['text_3'],796158,1,2024-10-27_21h04.12.049,word priming,2024.2.1post4,59.88834419,2024-10-27 21h04.25.209535 +0530
,15,15,0,,,ta_l_,table,new,tables,[0.022135416666666668],[-0.29296875],[1],[0],[0],[2.22703510010615],['text_3'],,,,,0,15,15,15,74.025855,,,,,,,,74.0090036,74.025855,74.025855,74.025855,0.0044879,76.2372397,tables,[0.022135416666666668],[-0.29296875],[1],[0],[0],[2.22703510010615],['text_3'],796158,1,2024-10-27_21h04.12.049,word priming,2024.2.1post4,59.88834419,2024-10-27 21h04.25.209535 +0530
,16,16,0,,,_a_t_p,laptop,old,laptop,[0.022135416666666668],[-0.29296875],[1],[0],[0],[2.244486799929291],['text_3'],,,,,0,16,16,5,76.2589862,,,,,,,,76.2417812,76.2589862,76.2589862,76.2589862,0.0043629,78.4873607,laptop,[0.022135416666666668],[-0.29296875],[1],[0],[0],[2.244486799929291],['text_3'],796158,1,2024-10-27_21h04.12.049,word priming,2024.2.1post4,59.88834419,2024-10-27 21h04.25.209535 +0530
,17,17,0,,,c_s_,case,old,case,[0.022135416666666668],[-0.29296875],[1],[0],[0],[1.6948855998925865],['text_3'],,,,,0,17,17,10,78.5088389,,,,,,,,78.4913287,78.5088389,78.5088389,78.5088389,0.0038166,80.1875951,case,[0.022135416666666668],[-0.29296875],[1],[0],[0],[1.6948855998925865],['text_3'],796158,1,2024-10-27_21h04.12.049,word priming,2024.2.1post4,59.88834419,2024-10-27 21h04.25.209535 +0530
,18,18,0,,,_oo_,book,old,book,[0.022135416666666668],[-0.29296875],[1],[0],[0],[1.778361100004986],['text_3'],,,,,0,18,18,0,80.2087148,,,,,,,,80.1917701,80.2087148,80.2087148,80.2087148,0.0039869,81.9714141,book,[0.022135416666666668],[-0.29296875],[1],[0],[0],[1.778361100004986],['text_3'],796158,1,2024-10-27_21h04.12.049,word priming,2024.2.1post4,59.88834419,2024-10-27 21h04.25.209535 +0530
,19,19,0,,,c_a_t,chart,old,chart,[0.022135416666666668],[-0.29296875],[1],[0],[0],[2.976476099807769],['text_3'],,,,,0,19,19,6,81.9921195,,,,,,,,81.9761193,81.9921195,81.9921195,81.9921195,0.004548,84.9539207,chart,[0.022135416666666668],[-0.29296875],[1],[0],[0],[2.976476099807769],['text_3'],796158,1,2024-10-27_21h04.12.049,word priming,2024.2.1post4,59.88834419,2024-10-27 21h04.25.209535 +0530
,,,,,,,,,,,,,,,,,,,,,,,,,,,,,,,,,,,,,,,,,,,,,,,,,,,,,
,,,,,,,,,,,,,,,,,,,,,,,,,,,,,,,,,,,,,,,,,,,,,,,,,,,,,
,,,,,,no of old word hits,,12,0.8,,,,,,,,,,,,,,,,,,,,,,,,,,,,,,,,,,,,,,,,,,,,
,,,,,,no of new word hits ,,4,0.80,,,,,,,,,,,,,,,,,,,,,,,,,,,,,,,,,,,,,,,,,,,,
,,,,,,,,,,,,,,,,,,,,,,,,,,,,,,,,,,,,,,,,,,,,,,,,,,,,,
,,,,,,priming,0.00,,,,,,,,,,,,,,,,,,,,,,,,,,,,,,,,,,,,,,,,,,,,,,
